,Unnamed: 0,index,PROLIFIC_PID,agg_points,bar1,bar2,barloc,block,block_trial,condition,correct,correct_response,dist_col,feedback,high_val_col,iti1,iti2,jatosStudyResultId,loc_dist,loc_tar,low_val_col,id,practice,response,response_age_01,response_age_10,response_gender,RT,sessionid,target_dot,trial_nr,trial_points,logRT,dist,sal,raw_filter,RT_filter
0,44,44,64c9892e8e7e06812b775c0c,0,0,1,75,0,45,1,0,a,9,1,orange,1981,1300,499,7,5,green,64c9892e8e7e06812b775c0c,0,,0,5,f,1757,1771158766003,0,45,0,7.471363088187097,low,low,False,False
1,45,45,64c9892e8e7e06812b775c0c,0,0,1,125,0,46,1,0,s,9,0,orange,1035,1774,499,7,3,green,64c9892e8e7e06812b775c0c,0,,0,5,f,1753,1771158766003,1,46,0,7.469083884921234,low,low,False,False
2,46,46,64c9892e8e7e06812b775c0c,0,0,1,175,0,47,1,0,s,1,1,orange,1441,1454,499,7,1,green,64c9892e8e7e06812b775c0c,0,,0,5,f,1760,1771158766003,1,47,0,7.473069088032197,hi,hi,False,False
3,47,47,64c9892e8e7e06812b775c0c,29,1,0,-175,0,48,1,1,s,8,1,orange,1328,1740,499,1,5,green,64c9892e8e7e06812b775c0c,0,s,0,5,f,1460,1771158766003,1,48,29,7.286191714702382,low,low,True,True
4,48,48,64c9892e8e7e06812b775c0c,67,1,0,-125,0,49,1,1,s,3,1,orange,1784,1098,499,9,7,green,64c9892e8e7e06812b775c0c,0,s,0,5,f,1373,1771158766003,1,49,38,7.224753405767971,hi,low,True,True
5,49,49,64c9892e8e7e06812b775c0c,777,1,0,-75,1,50,1,1,s,4,0,orange,1674,1202,499,7,1,green,64c9892e8e7e06812b775c0c,0,k,0,5,f,27769,1771158766003,1,50,710,10.231675569569644,hi,low,False,False
6,50,50,64c9892e8e7e06812b775c0c,827,1,0,-25,1,51,1,1,s,6,0,orange,1992,1736,499,1,7,green,64c9892e8e7e06812b775c0c,0,s,0,5,f,1247,1771158766003,1,51,50,7.1284959456800365,low,hi,True,True
7,51,51,64c9892e8e7e06812b775c0c,827,1,0,25,1,52,1,0,a,6,0,orange,1691,1690,499,1,3,green,64c9892e8e7e06812b775c0c,0,s,0,5,f,1178,1771158766003,0,52,0,7.071573364211532,low,hi,True,True
8,52,52,64c9892e8e7e06812b775c0c,1317,1,0,75,1,53,1,1,a,2,1,orange,1221,1213,499,7,1,green,64c9892e8e7e06812b775c0c,0,a,0,5,f,1257,1771158766003,0,53,490,7.136483208590247,hi,med,True,True
9,53,53,64c9892e8e7e06812b775c0c,1317,1,0,125,1,54,1,0,s,3,1,orange,1044,1771,499,3,1,green,64c9892e8e7e06812b775c0c,0,a,0,5,f,1500,1771158766003,1,54,0,7.313220387090301,hi,low,True,True
10,54,54,64c9892e8e7e06812b775c0c,1369,1,0,175,1,55,1,1,a,8,1,orange,1619,1858,499,7,1,green,64c9892e8e7e06812b775c0c,0,a,0,5,f,1234,1771158766003,0,55,52,7.1180162044653335,low,low,True,True
11,55,55,64c9892e8e7e06812b775c0c,1369,0,1,-175,1,56,1,0,s,6,0,orange,1193,1916,499,7,1,green,64c9892e8e7e06812b775c0c,0,,0,5,f,1761,1771158766003,1,56,0,7.473637108496206,low,hi,False,False
12,56,56,64c9892e8e7e06812b775c0c,1378,0,1,-125,1,57,1,1,s,99,0,orange,1691,1014,499,9,5,green,64c9892e8e7e06812b775c0c,0,s,0,5,f,1659,1771158766003,1,57,9,7.413970290190444,nd,med,True,True
13,57,57,64c9892e8e7e06812b775c0c,1678,0,1,-75,1,58,1,1,s,3,1,orange,1130,1786,499,1,5,green,64c9892e8e7e06812b775c0c,0,s,0,5,f,1451,1771158766003,1,58,300,7.280008252884188,hi,low,True,True
14,58,58,64c9892e8e7e06812b775c0c,1678,0,1,-25,1,59,1,0,s,99,1,orange,1359,1421,499,9,1,green,64c9892e8e7e06812b775c0c,0,a,0,5,f,1378,1771158766003,1,59,0,7.228388451573604,nd,med,True,True
15,59,59,64c9892e8e7e06812b775c0c,1678,0,1,25,1,60,1,0,s,9,1,orange,1976,1534,499,7,1,green,64c9892e8e7e06812b775c0c,0,a,0,5,f,1289,1771158766003,1,60,0,7.161622002939187,low,low,True,True
16,60,60,64c9892e8e7e06812b775c0c,1678,0,1,75,1,61,1,0,s,5,1,orange,1744,1456,499,5,1,green,64c9892e8e7e06812b775c0c,0,,0,5,f,1751,1771158766003,1,61,0,7.467942332285852,low,hi,False,False
17,61,61,64c9892e8e7e06812b775c0c,1678,0,1,125,1,62,1,0,a,9,1,orange,1327,1946,499,5,1,green,64c9892e8e7e06812b775c0c,0,,0,5,f,1755,1771158766003,0,62,0,7.470224135899966,low,low,False,False
18,62,62,64c9892e8e7e06812b775c0c,1678,0,1,175,1,63,1,0,s,8,1,orange,1318,1555,499,7,3,green,64c9892e8e7e06812b775c0c,0,,0,5,f,1752,1771158766003,1,63,0,7.468513271496337,low,low,False,False
19,63,63,64c9892e8e7e06812b775c0c,1678,1,0,-175,1,64,1,0,a,0,0,orange,1458,1748,499,3,5,green,64c9892e8e7e06812b775c0c,0,,0,5,f,1758,1771158766003,0,64,0,7.471932078245122,hi,hi,False,False
20,64,64,64c9892e8e7e06812b775c0c,1678,1,0,-125,1,65,1,0,s,1,0,orange,1705,1082,499,1,5,green,64c9892e8e7e06812b775c0c,0,,0,5,f,1754,1771158766003,1,65,0,7.469654172932128,hi,hi,False,False
21,65,65,64c9892e8e7e06812b775c0c,1698,1,0,-75,1,66,1,1,a,8,1,orange,1872,1857,499,1,7,green,64c9892e8e7e06812b775c0c,0,a,0,5,f,1553,1771158766003,0,66,20,7.347943823148687,low,low,True,True
22,66,66,64c9892e8e7e06812b775c0c,1715,1,0,-25,1,67,1,1,s,9,0,orange,1629,1700,499,1,7,green,64c9892e8e7e06812b775c0c,0,s,0,5,f,1580,1771158766003,1,67,17,7.365180126021013,low,low,True,True
23,67,67,64c9892e8e7e06812b775c0c,1768,1,0,25,1,68,1,1,a,9,1,orange,1946,1645,499,3,5,green,64c9892e8e7e06812b775c0c,0,a,0,5,f,1221,1771158766003,0,68,53,7.107425474110705,low,low,True,True
24,68,68,64c9892e8e7e06812b775c0c,1812,1,0,75,1,69,1,1,s,8,0,orange,1546,1224,499,3,7,green,64c9892e8e7e06812b775c0c,0,s,0,5,f,1313,1771158766003,1,69,44,7.180069874302796,low,low,True,True
25,69,69,64c9892e8e7e06812b775c0c,1856,1,0,125,1,70,1,1,s,5,0,orange,1989,1526,499,1,7,green,64c9892e8e7e06812b775c0c,0,s,0,5,f,1313,1771158766003,1,70,44,7.180069874302796,low,hi,True,True
26,70,70,64c9892e8e7e06812b775c0c,1856,1,0,175,1,71,1,0,a,99,1,orange,1642,1618,499,9,3,green,64c9892e8e7e06812b775c0c,0,s,0,5,f,1394,1771158766003,0,71,0,7.239932591320469,nd,med,True,True
27,71,71,64c9892e8e7e06812b775c0c,1856,0,1,-175,1,72,1,0,s,7,1,orange,1021,1934,499,7,5,green,64c9892e8e7e06812b775c0c,0,,0,5,f,1754,1771158766003,1,72,0,7.469654172932128,low,med,False,False
28,72,72,64c9892e8e7e06812b775c0c,1856,0,1,-125,1,73,1,0,a,3,0,orange,1081,1371,499,5,7,green,64c9892e8e7e06812b775c0c,0,,0,5,f,1763,1771158766003,0,73,0,7.47477218239787,hi,low,False,False
29,73,73,64c9892e8e7e06812b775c0c,1888,0,1,-75,1,74,1,1,a,99,0,orange,1522,1572,499,9,7,green,64c9892e8e7e06812b775c0c,0,a,0,5,f,1427,1771158766003,0,74,32,7.2633296174768365,nd,med,True,True
30,74,74,64c9892e8e7e06812b775c0c,2208,0,1,-25,1,75,1,1,a,3,1,orange,1177,1126,499,5,1,green,64c9892e8e7e06812b775c0c,0,a,0,5,f,1429,1771158766003,0,75,320,7.264730177929867,hi,low,True,True
31,75,75,64c9892e8e7e06812b775c0c,2608,0,1,25,1,76,1,1,a,3,0,orange,1388,1524,499,3,7,green,64c9892e8e7e06812b775c0c,0,a,0,5,f,1353,1771158766003,0,76,400,7.210079628170788,hi,low,True,True
32,76,76,64c9892e8e7e06812b775c0c,2658,0,1,75,1,77,1,1,a,0,1,orange,1892,1760,499,7,5,green,64c9892e8e7e06812b775c0c,0,a,0,5,f,1696,1771158766003,0,77,50,7.436027816351848,hi,hi,True,True
33,77,77,64c9892e8e7e06812b775c0c,2758,0,1,125,1,78,1,1,a,3,0,orange,1139,1341,499,7,3,green,64c9892e8e7e06812b775c0c,0,a,0,5,f,1653,1771158766003,0,78,100,7.410347097821024,hi,low,True,True
34,78,78,64c9892e8e7e06812b775c0c,2792,0,1,175,1,79,1,1,s,8,1,orange,1429,1075,499,5,7,green,64c9892e8e7e06812b775c0c,0,s,0,5,f,1414,1771158766003,1,79,34,7.254177846456518,low,low,True,True
35,79,79,64c9892e8e7e06812b775c0c,2833,1,0,-175,1,80,1,1,s,5,0,orange,1164,1427,499,7,3,green,64c9892e8e7e06812b775c0c,0,s,0,5,f,1342,1771158766003,1,80,41,7.201916317531627,low,hi,True,True
36,80,80,64c9892e8e7e06812b775c0c,2843,1,0,-125,1,81,1,1,s,99,0,orange,1273,1217,499,9,3,green,64c9892e8e7e06812b775c0c,0,s,0,5,f,1650,1771158766003,1,81,10,7.408530566894626,nd,med,True,True
37,81,81,64c9892e8e7e06812b775c0c,2879,1,0,-75,1,82,1,1,a,7,0,orange,1242,1791,499,7,1,green,64c9892e8e7e06812b775c0c,0,a,0,5,f,1394,1771158766003,0,82,36,7.239932591320469,low,med,True,True
38,82,82,64c9892e8e7e06812b775c0c,2938,1,0,-25,1,83,1,1,s,99,0,orange,1078,1808,499,9,5,green,64c9892e8e7e06812b775c0c,0,s,0,5,f,1165,1771158766003,1,83,59,7.060476365999801,nd,med,True,True
39,83,83,64c9892e8e7e06812b775c0c,3428,1,0,25,1,84,1,1,s,4,0,orange,1313,1032,499,3,7,green,64c9892e8e7e06812b775c0c,0,s,0,5,f,1261,1771158766003,1,84,490,7.13966033596492,hi,low,True,True
40,84,84,64c9892e8e7e06812b775c0c,3496,1,0,75,1,85,1,1,a,99,1,orange,1523,1121,499,9,3,green,64c9892e8e7e06812b775c0c,0,a,0,5,f,1073,1771158766003,0,85,68,6.9782137426306985,nd,med,True,True
41,85,85,64c9892e8e7e06812b775c0c,3545,1,0,125,1,86,1,1,a,8,0,orange,1154,1742,499,5,3,green,64c9892e8e7e06812b775c0c,0,a,0,5,f,1263,1771158766003,0,86,49,7.141245122350491,low,low,True,True
42,86,86,64c9892e8e7e06812b775c0c,4135,1,0,175,1,87,1,1,a,4,1,orange,1350,1000,499,3,1,green,64c9892e8e7e06812b775c0c,0,a,0,5,f,1158,1771158766003,0,87,590,7.05444965813294,hi,low,True,True
43,87,87,64c9892e8e7e06812b775c0c,4135,0,1,-175,1,88,1,0,s,2,1,orange,1735,1553,499,3,7,green,64c9892e8e7e06812b775c0c,0,a,0,5,f,1088,1771158766003,1,88,0,6.992096427415888,hi,med,True,True
44,88,88,64c9892e8e7e06812b775c0c,4755,0,1,-125,1,89,1,1,a,0,1,orange,1406,1901,499,3,1,green,64c9892e8e7e06812b775c0c,0,a,0,5,f,1129,1771158766003,0,89,620,7.029087564149662,hi,hi,True,True
45,89,89,64c9892e8e7e06812b775c0c,5295,0,1,-75,1,90,1,1,a,2,0,orange,1316,1397,499,1,5,green,64c9892e8e7e06812b775c0c,0,a,0,5,f,1208,1771158766003,0,90,540,7.0967213784947605,hi,med,True,True
46,90,90,64c9892e8e7e06812b775c0c,5307,0,1,-25,1,91,1,1,a,99,1,orange,1708,1949,499,9,1,green,64c9892e8e7e06812b775c0c,0,a,0,5,f,1632,1771158766003,0,91,12,7.397561535524052,nd,med,True,True
47,91,91,64c9892e8e7e06812b775c0c,5329,0,1,25,1,92,1,1,s,99,1,orange,1781,1118,499,9,5,green,64c9892e8e7e06812b775c0c,0,s,0,5,f,1527,1771158766003,1,92,22,7.331060305218632,nd,med,True,True
48,92,92,64c9892e8e7e06812b775c0c,5379,0,1,75,1,93,1,1,a,99,0,orange,1561,1889,499,9,7,green,64c9892e8e7e06812b775c0c,0,a,0,5,f,1248,1771158766003,0,93,50,7.129297548929373,nd,med,True,True
49,93,93,64c9892e8e7e06812b775c0c,5859,0,1,125,1,94,1,1,s,0,0,orange,1082,1957,499,1,5,green,64c9892e8e7e06812b775c0c,0,s,0,5,f,1267,1771158766003,1,94,480,7.144407180321139,hi,hi,True,True
50,94,94,64c9892e8e7e06812b775c0c,5914,0,1,175,1,95,1,1,s,99,0,orange,1367,1222,499,9,3,green,64c9892e8e7e06812b775c0c,0,s,0,5,f,1200,1771158766003,1,95,55,7.090076835776092,nd,med,True,True
51,95,95,64c9892e8e7e06812b775c0c,6644,1,0,-175,1,96,1,1,a,4,0,orange,1781,1300,499,7,3,green,64c9892e8e7e06812b775c0c,0,a,0,5,f,1016,1771158766003,0,96,730,6.923628628138427,hi,low,True,True
52,96,96,64c9892e8e7e06812b775c0c,6705,1,0,-125,1,97,1,1,a,9,1,orange,1791,1525,499,3,7,green,64c9892e8e7e06812b775c0c,0,a,0,5,f,1138,1771158766003,0,97,61,7.037027614686276,low,low,True,True
53,97,97,64c9892e8e7e06812b775c0c,6779,1,0,-75,1,98,1,1,s,5,1,orange,1574,1261,499,5,7,green,64c9892e8e7e06812b775c0c,0,s,0,5,f,1014,1771158766003,1,98,74,6.921658184151129,low,hi,True,True
54,98,98,64c9892e8e7e06812b775c0c,6860,1,0,-25,1,99,1,1,a,99,1,orange,1453,1693,499,9,1,green,64c9892e8e7e06812b775c0c,0,a,0,5,f,938,1771158766003,0,99,81,6.843749949006225,nd,med,True,True
55,99,99,64c9892e8e7e06812b775c0c,7430,1,0,25,2,100,1,1,s,1,0,orange,1735,1677,499,3,5,green,64c9892e8e7e06812b775c0c,0,.,0,5,f,42143,1771158766003,1,100,570,10.648823876091406,hi,hi,False,False
56,100,100,64c9892e8e7e06812b775c0c,8080,1,0,75,2,101,1,1,s,1,1,orange,1725,1973,499,3,7,green,64c9892e8e7e06812b775c0c,0,s,0,5,f,1105,1771158766003,1,101,650,7.007600613951853,hi,hi,True,True
57,101,101,64c9892e8e7e06812b775c0c,8370,1,0,125,2,102,1,1,s,2,1,orange,1220,1936,499,3,5,green,64c9892e8e7e06812b775c0c,0,s,0,5,f,1461,1771158766003,1,102,290,7.2868764117507,hi,med,True,True
58,102,102,64c9892e8e7e06812b775c0c,8370,1,0,175,2,103,1,0,a,0,1,orange,1350,1619,499,5,3,green,64c9892e8e7e06812b775c0c,0,,0,5,f,1755,1771158766003,0,103,0,7.470224135899966,hi,hi,False,False
59,103,103,64c9892e8e7e06812b775c0c,8378,0,1,-175,2,104,1,1,a,7,1,orange,1745,1483,499,5,3,green,64c9892e8e7e06812b775c0c,0,a,0,5,f,1675,1771158766003,0,104,8,7.423568444259167,low,med,True,True
60,104,104,64c9892e8e7e06812b775c0c,8415,0,1,-125,2,105,1,1,a,99,0,orange,1053,1509,499,9,7,green,64c9892e8e7e06812b775c0c,0,a,0,5,f,1376,1771158766003,0,105,37,7.226936018493289,nd,med,True,True
61,105,105,64c9892e8e7e06812b775c0c,8975,0,1,-75,2,106,1,1,s,1,0,orange,1604,1771,499,1,3,green,64c9892e8e7e06812b775c0c,0,s,0,5,f,1195,1771158766003,1,106,560,7.085901464365611,hi,hi,True,True
62,106,106,64c9892e8e7e06812b775c0c,9375,0,1,-25,2,107,1,1,s,2,1,orange,2000,1565,499,1,3,green,64c9892e8e7e06812b775c0c,0,s,0,5,f,1351,1771158766003,1,107,400,7.208600337960199,hi,med,True,True
63,107,107,64c9892e8e7e06812b775c0c,10075,0,1,25,2,108,1,1,a,4,1,orange,1378,1134,499,7,5,green,64c9892e8e7e06812b775c0c,0,a,0,5,f,1052,1771158766003,0,108,700,6.9584483932976555,hi,low,True,True
64,108,108,64c9892e8e7e06812b775c0c,10075,0,1,75,2,109,1,0,a,8,1,orange,1389,1673,499,1,3,green,64c9892e8e7e06812b775c0c,0,,0,5,f,1754,1771158766003,0,109,0,7.469654172932128,low,low,False,False
65,109,109,64c9892e8e7e06812b775c0c,10132,0,1,125,2,110,1,1,a,8,1,orange,1473,1059,499,3,5,green,64c9892e8e7e06812b775c0c,0,a,0,5,f,1177,1771158766003,0,110,57,7.0707241072602764,low,low,True,True
66,110,110,64c9892e8e7e06812b775c0c,10189,0,1,175,2,111,1,1,s,8,1,orange,1168,1138,499,1,3,green,64c9892e8e7e06812b775c0c,0,s,0,5,f,1176,1771158766003,1,111,57,7.069874128458572,low,low,True,True
67,111,111,64c9892e8e7e06812b775c0c,10236,1,0,-175,2,112,1,1,a,99,1,orange,1705,1251,499,9,5,green,64c9892e8e7e06812b775c0c,0,a,0,5,f,1276,1771158766003,0,112,47,7.151485463904735,nd,med,True,True
68,112,112,64c9892e8e7e06812b775c0c,10236,1,0,-125,2,113,1,0,a,4,0,orange,1509,1524,499,1,3,green,64c9892e8e7e06812b775c0c,0,s,0,5,f,1392,1771158766003,0,113,0,7.238496840894365,hi,low,True,True
69,113,113,64c9892e8e7e06812b775c0c,10290,1,0,-75,2,114,1,1,s,99,1,orange,1911,1572,499,9,7,green,64c9892e8e7e06812b775c0c,0,s,0,5,f,1212,1771158766003,1,114,54,7.10002716662926,nd,med,True,True
70,114,114,64c9892e8e7e06812b775c0c,10760,1,0,-25,2,115,1,1,s,3,1,orange,1537,1564,499,1,7,green,64c9892e8e7e06812b775c0c,0,s,0,5,f,1281,1771158766003,1,115,470,7.155396301896734,hi,low,True,True
71,115,115,64c9892e8e7e06812b775c0c,10782,1,0,25,2,116,1,1,s,6,1,orange,1302,1856,499,5,1,green,64c9892e8e7e06812b775c0c,0,s,0,5,f,1533,1771158766003,1,116,22,7.334981878871814,low,hi,True,True
72,116,116,64c9892e8e7e06812b775c0c,11272,1,0,75,2,117,1,1,a,0,1,orange,1514,1243,499,1,7,green,64c9892e8e7e06812b775c0c,0,a,0,5,f,1257,1771158766003,0,117,490,7.136483208590247,hi,hi,True,True
73,117,117,64c9892e8e7e06812b775c0c,11339,1,0,125,2,118,1,1,a,7,0,orange,1628,1650,499,3,1,green,64c9892e8e7e06812b775c0c,0,a,0,5,f,1077,1771158766003,0,118,67,6.981934677156389,low,med,True,True
74,118,118,64c9892e8e7e06812b775c0c,11339,1,0,175,2,119,1,0,s,7,0,orange,1945,1732,499,3,7,green,64c9892e8e7e06812b775c0c,0,,0,5,f,1752,1771158766003,1,119,0,7.468513271496337,low,med,False,False
75,119,119,64c9892e8e7e06812b775c0c,11339,0,1,-175,2,120,1,0,a,9,0,orange,1917,1644,499,1,5,green,64c9892e8e7e06812b775c0c,0,,0,5,f,1754,1771158766003,0,120,0,7.469654172932128,low,low,False,False
76,120,120,64c9892e8e7e06812b775c0c,11889,0,1,-125,2,121,1,1,a,4,1,orange,1536,1485,499,5,1,green,64c9892e8e7e06812b775c0c,0,a,0,5,f,1204,1771158766003,0,121,550,7.093404625868766,hi,low,True,True
77,121,121,64c9892e8e7e06812b775c0c,11889,0,1,-75,2,122,1,0,s,1,0,orange,1715,1521,499,1,7,green,64c9892e8e7e06812b775c0c,0,a,0,5,f,1395,1771158766003,1,122,0,7.240649694255466,hi,hi,True,True
78,122,122,64c9892e8e7e06812b775c0c,11949,0,1,-25,2,123,1,1,a,3,1,orange,1839,1334,499,5,3,green,64c9892e8e7e06812b775c0c,0,a,0,5,f,1691,1771158766003,0,123,60,7.43307534889858,hi,low,True,True
79,123,123,64c9892e8e7e06812b775c0c,12399,0,1,25,2,124,1,1,s,1,1,orange,1273,1556,499,5,7,green,64c9892e8e7e06812b775c0c,0,s,0,5,f,1298,1771158766003,1,124,450,7.168579897264035,hi,hi,True,True
80,124,124,64c9892e8e7e06812b775c0c,12467,0,1,75,2,125,1,1,a,7,1,orange,1847,1779,499,5,1,green,64c9892e8e7e06812b775c0c,0,a,0,5,f,1072,1771158766003,0,125,68,6.977281341630747,low,med,True,True
81,125,125,64c9892e8e7e06812b775c0c,12511,0,1,125,2,126,1,1,a,5,0,orange,1259,1122,499,1,3,green,64c9892e8e7e06812b775c0c,0,a,0,5,f,1308,1771158766003,0,126,44,7.176254532017144,low,hi,True,True
82,126,126,64c9892e8e7e06812b775c0c,12511,0,1,175,2,127,1,0,s,99,0,orange,1894,1390,499,9,1,green,64c9892e8e7e06812b775c0c,0,,0,5,f,1755,1771158766003,1,127,0,7.470224135899966,nd,med,False,False
83,127,127,64c9892e8e7e06812b775c0c,12511,1,0,-175,2,128,1,0,s,5,1,orange,1410,1799,499,3,5,green,64c9892e8e7e06812b775c0c,0,,0,5,f,1753,1771158766003,1,128,0,7.469083884921234,low,hi,False,False
84,128,128,64c9892e8e7e06812b775c0c,12991,1,0,-125,2,129,1,1,s,0,1,orange,1243,1656,499,7,1,green,64c9892e8e7e06812b775c0c,0,s,0,5,f,1269,1771158766003,1,129,480,7.1459844677143876,hi,hi,True,True
85,129,129,64c9892e8e7e06812b775c0c,13067,1,0,-75,2,130,1,1,s,6,1,orange,1780,1657,499,3,5,green,64c9892e8e7e06812b775c0c,0,s,0,5,f,988,1771158766003,1,130,76,6.895682697747868,low,hi,True,True
86,130,130,64c9892e8e7e06812b775c0c,13138,1,0,-25,2,131,1,1,s,7,0,orange,1480,1979,499,3,5,green,64c9892e8e7e06812b775c0c,0,s,0,5,f,1039,1771158766003,1,131,71,6.946013991099227,low,med,True,True
87,131,131,64c9892e8e7e06812b775c0c,13638,1,0,25,2,132,1,1,s,0,1,orange,1317,1278,499,7,3,green,64c9892e8e7e06812b775c0c,0,s,0,5,f,1252,1771158766003,1,132,500,7.132497551660044,hi,hi,True,True
88,132,132,64c9892e8e7e06812b775c0c,13638,1,0,75,2,133,1,0,a,9,0,orange,1286,1585,499,5,3,green,64c9892e8e7e06812b775c0c,0,,0,5,f,1753,1771158766003,0,133,0,7.469083884921234,low,low,False,False
89,133,133,64c9892e8e7e06812b775c0c,13686,1,0,125,2,134,1,1,a,6,1,orange,1397,1319,499,5,7,green,64c9892e8e7e06812b775c0c,0,a,0,5,f,1275,1771158766003,0,134,48,7.150701457592526,low,hi,True,True
90,134,134,64c9892e8e7e06812b775c0c,14336,1,0,175,2,135,1,1,a,2,1,orange,1682,1168,499,5,1,green,64c9892e8e7e06812b775c0c,0,a,0,5,f,1105,1771158766003,0,135,650,7.007600613951853,hi,med,True,True
91,135,135,64c9892e8e7e06812b775c0c,14946,0,1,-175,2,136,1,1,s,2,0,orange,1127,1778,499,5,3,green,64c9892e8e7e06812b775c0c,0,s,0,5,f,1144,1771158766003,1,136,610,7.042286171939743,hi,med,True,True
92,136,136,64c9892e8e7e06812b775c0c,15026,0,1,-125,2,137,1,1,a,6,1,orange,1064,1493,499,3,7,green,64c9892e8e7e06812b775c0c,0,a,0,5,f,947,1771158766003,0,137,80,6.853299093186078,low,hi,True,True
93,137,137,64c9892e8e7e06812b775c0c,15095,0,1,-75,2,138,1,1,a,99,1,orange,1824,1359,499,9,7,green,64c9892e8e7e06812b775c0c,0,a,0,5,f,1059,1771158766003,0,138,69,6.9650803456014065,nd,med,True,True
94,138,138,64c9892e8e7e06812b775c0c,15985,0,1,-25,2,139,1,1,a,1,0,orange,1427,1894,499,5,3,green,64c9892e8e7e06812b775c0c,0,a,0,5,f,859,1771158766003,0,139,890,6.755768921984255,hi,hi,True,True
95,139,139,64c9892e8e7e06812b775c0c,16032,0,1,25,2,140,1,1,a,7,1,orange,1427,1944,499,1,5,green,64c9892e8e7e06812b775c0c,0,a,0,5,f,1276,1771158766003,0,140,47,7.151485463904735,low,med,True,True
96,140,140,64c9892e8e7e06812b775c0c,16140,0,1,75,2,141,1,1,a,5,1,orange,1446,1832,499,3,1,green,64c9892e8e7e06812b775c0c,0,a,0,5,f,674,1771158766003,0,141,108,6.513230110912307,low,hi,True,True
97,141,141,64c9892e8e7e06812b775c0c,16238,0,1,125,2,142,1,1,a,6,1,orange,1053,1016,499,7,5,green,64c9892e8e7e06812b775c0c,0,a,0,5,f,774,1771158766003,0,142,98,6.651571873589727,low,hi,True,True
98,142,142,64c9892e8e7e06812b775c0c,17098,0,1,175,2,143,1,1,a,0,0,orange,1275,1069,499,1,3,green,64c9892e8e7e06812b775c0c,0,a,0,5,f,889,1771158766003,0,143,860,6.790097235513905,hi,hi,True,True
99,143,143,64c9892e8e7e06812b775c0c,17137,1,0,-175,2,144,1,1,s,99,1,orange,1474,1136,499,9,7,green,64c9892e8e7e06812b775c0c,0,s,0,5,f,1360,1771158766003,1,144,39,7.215239978730097,nd,med,True,True
100,144,144,64c9892e8e7e06812b775c0c,17184,1,0,-125,2,145,1,1,a,5,0,orange,1807,1714,499,1,5,green,64c9892e8e7e06812b775c0c,0,a,0,5,f,1280,1771158766003,0,145,47,7.154615356913663,low,hi,True,True
101,145,145,64c9892e8e7e06812b775c0c,17240,1,0,-75,2,146,1,1,s,5,0,orange,1769,1458,499,5,3,green,64c9892e8e7e06812b775c0c,0,s,0,5,f,1194,1771158766003,1,146,56,7.085064293952548,low,hi,True,True
102,146,146,64c9892e8e7e06812b775c0c,17323,1,0,-25,2,147,1,1,a,6,1,orange,1245,1731,499,7,3,green,64c9892e8e7e06812b775c0c,0,a,0,5,f,920,1771158766003,0,147,83,6.824373670043086,low,hi,True,True
103,147,147,64c9892e8e7e06812b775c0c,18033,1,0,25,2,148,1,1,s,3,1,orange,1542,1959,499,7,1,green,64c9892e8e7e06812b775c0c,0,s,0,5,f,1043,1771158766003,1,148,710,6.949856455000773,hi,low,True,True
104,148,148,64c9892e8e7e06812b775c0c,18723,1,0,75,2,149,1,1,s,2,1,orange,1845,1688,499,5,7,green,64c9892e8e7e06812b775c0c,0,s,0,5,f,1060,1771158766003,1,149,690,6.966024187106113,hi,med,True,True
105,149,149,64c9892e8e7e06812b775c0c,18803,1,0,125,3,150,1,1,a,5,0,orange,1800,1406,499,7,5,green,64c9892e8e7e06812b775c0c,0,",",0,5,f,46857,1771158766003,0,150,80,10.754855689525831,low,hi,False,False
106,150,150,64c9892e8e7e06812b775c0c,19393,1,0,175,3,151,1,1,s,0,1,orange,1054,1926,499,5,7,green,64c9892e8e7e06812b775c0c,0,s,0,5,f,1162,1771158766003,1,151,590,7.057897937411856,hi,hi,True,True
107,151,151,64c9892e8e7e06812b775c0c,19489,0,1,-175,3,152,1,1,a,6,0,orange,1835,1095,499,3,1,green,64c9892e8e7e06812b775c0c,0,a,0,5,f,790,1771158766003,0,152,96,6.672032945461067,low,hi,True,True
108,152,152,64c9892e8e7e06812b775c0c,19578,0,1,-125,3,153,1,1,s,8,1,orange,1692,1270,499,3,1,green,64c9892e8e7e06812b775c0c,0,s,0,5,f,861,1771158766003,1,153,89,6.7580945044277305,low,low,True,True
109,153,153,64c9892e8e7e06812b775c0c,19596,0,1,-75,3,154,1,1,a,9,1,orange,1116,1371,499,5,7,green,64c9892e8e7e06812b775c0c,0,a,0,5,f,1569,1771158766003,0,154,18,7.358193752733032,low,low,True,True
110,154,154,64c9892e8e7e06812b775c0c,19659,0,1,-25,3,155,1,1,s,7,1,orange,1515,1271,499,1,3,green,64c9892e8e7e06812b775c0c,0,s,0,5,f,1125,1771158766003,1,155,63,7.025538314638521,low,med,True,True
111,155,155,64c9892e8e7e06812b775c0c,19799,0,1,25,3,156,1,1,a,3,0,orange,1603,1830,499,3,5,green,64c9892e8e7e06812b775c0c,0,a,0,5,f,1607,1771158766003,0,156,140,7.382124365737512,hi,low,True,True
112,156,156,64c9892e8e7e06812b775c0c,20339,0,1,75,3,157,1,1,a,4,1,orange,1676,1344,499,5,3,green,64c9892e8e7e06812b775c0c,0,a,0,5,f,1211,1771158766003,0,157,540,7.099201743553092,hi,low,True,True
113,157,157,64c9892e8e7e06812b775c0c,20414,0,1,125,3,158,1,1,s,8,0,orange,1129,1474,499,5,1,green,64c9892e8e7e06812b775c0c,0,s,0,5,f,998,1771158766003,1,158,75,6.905753276311464,low,low,True,True
114,158,158,64c9892e8e7e06812b775c0c,20494,0,1,175,3,159,1,1,s,5,1,orange,1381,1601,499,7,1,green,64c9892e8e7e06812b775c0c,0,s,0,5,f,951,1771158766003,1,159,80,6.85751406254539,low,hi,True,True
115,159,159,64c9892e8e7e06812b775c0c,20543,1,0,-175,3,160,1,1,a,6,1,orange,1267,1652,499,1,5,green,64c9892e8e7e06812b775c0c,0,a,0,5,f,1258,1771158766003,0,160,49,7.1372784372603855,low,hi,True,True
116,160,160,64c9892e8e7e06812b775c0c,21603,1,0,-125,3,161,1,1,a,4,1,orange,1651,1316,499,3,5,green,64c9892e8e7e06812b775c0c,0,a,0,5,f,693,1771158766003,0,161,1060,6.541029999189903,hi,low,True,True
117,161,161,64c9892e8e7e06812b775c0c,21676,1,0,-75,3,162,1,1,s,99,1,orange,1404,1608,499,9,1,green,64c9892e8e7e06812b775c0c,0,s,0,5,f,1025,1771158766003,1,162,73,6.932447891572509,nd,med,True,True
118,162,162,64c9892e8e7e06812b775c0c,22636,1,0,-25,3,163,1,1,a,4,1,orange,1036,1627,499,1,7,green,64c9892e8e7e06812b775c0c,0,a,0,5,f,789,1771158766003,0,163,960,6.670766320845874,hi,low,True,True
119,163,163,64c9892e8e7e06812b775c0c,22734,1,0,25,3,164,1,1,a,99,1,orange,1187,1393,499,9,1,green,64c9892e8e7e06812b775c0c,0,a,0,5,f,766,1771158766003,0,164,98,6.641182169740591,nd,med,True,True
120,164,164,64c9892e8e7e06812b775c0c,22818,1,0,75,3,165,1,1,s,5,0,orange,1696,1255,499,3,7,green,64c9892e8e7e06812b775c0c,0,s,0,5,f,908,1771158766003,1,165,84,6.811244378601294,low,hi,True,True
121,165,165,64c9892e8e7e06812b775c0c,23408,1,0,125,3,166,1,1,s,1,0,orange,1229,1042,499,7,5,green,64c9892e8e7e06812b775c0c,0,s,0,5,f,1163,1771158766003,1,166,590,7.0587581525186645,hi,hi,True,True
122,166,166,64c9892e8e7e06812b775c0c,23489,1,0,175,3,167,1,1,a,9,0,orange,1565,1874,499,3,1,green,64c9892e8e7e06812b775c0c,0,a,0,5,f,939,1771158766003,0,167,81,6.844815479208263,low,low,True,True
123,167,167,64c9892e8e7e06812b775c0c,23585,0,1,-175,3,168,1,1,a,8,1,orange,1566,1871,499,7,5,green,64c9892e8e7e06812b775c0c,0,a,0,5,f,788,1771158766003,0,168,96,6.669498089857879,low,low,True,True
124,168,168,64c9892e8e7e06812b775c0c,24305,0,1,-125,3,169,1,1,a,1,1,orange,1390,1261,499,5,1,green,64c9892e8e7e06812b775c0c,0,a,0,5,f,1033,1771158766003,0,169,720,6.940222469119639,hi,hi,True,True
125,169,169,64c9892e8e7e06812b775c0c,24825,0,1,-75,3,170,1,1,s,4,0,orange,1030,1082,499,5,7,green,64c9892e8e7e06812b775c0c,0,s,0,5,f,1226,1771158766003,1,170,520,7.111512116496157,hi,low,True,True
126,170,170,64c9892e8e7e06812b775c0c,25735,0,1,-25,3,171,1,1,a,1,0,orange,1484,1971,499,7,3,green,64c9892e8e7e06812b775c0c,0,a,0,5,f,836,1771158766003,0,171,910,6.728628613084702,hi,hi,True,True
127,171,171,64c9892e8e7e06812b775c0c,25822,0,1,25,3,172,1,1,a,99,0,orange,1563,1236,499,9,5,green,64c9892e8e7e06812b775c0c,0,a,0,5,f,882,1771158766003,0,172,87,6.782192056006791,nd,med,True,True
128,172,172,64c9892e8e7e06812b775c0c,26222,0,1,75,3,173,1,1,a,2,0,orange,1111,1092,499,7,3,green,64c9892e8e7e06812b775c0c,0,a,0,5,f,1354,1771158766003,0,173,400,7.21081845347222,hi,med,True,True
129,173,173,64c9892e8e7e06812b775c0c,26862,0,1,125,3,174,1,1,a,4,1,orange,1383,1589,499,1,5,green,64c9892e8e7e06812b775c0c,0,a,0,5,f,1107,1771158766003,0,174,640,7.009408932708637,hi,low,True,True
130,174,174,64c9892e8e7e06812b775c0c,27452,0,1,175,3,175,1,1,s,2,0,orange,1482,1694,499,1,7,green,64c9892e8e7e06812b775c0c,0,s,0,5,f,1156,1771158766003,1,175,590,7.052721049232323,hi,med,True,True
131,175,175,64c9892e8e7e06812b775c0c,28412,1,0,-175,3,176,1,1,a,0,1,orange,1203,1565,499,3,7,green,64c9892e8e7e06812b775c0c,0,a,0,5,f,794,1771158766003,0,176,960,6.677083461247136,hi,hi,True,True
132,176,176,64c9892e8e7e06812b775c0c,29142,1,0,-125,3,177,1,1,a,0,1,orange,1000,1847,499,5,1,green,64c9892e8e7e06812b775c0c,0,a,0,5,f,1023,1771158766003,0,177,730,6.930494765951626,hi,hi,True,True
133,177,177,64c9892e8e7e06812b775c0c,29186,1,0,-75,3,178,1,1,a,7,0,orange,1799,1180,499,7,3,green,64c9892e8e7e06812b775c0c,0,a,0,5,f,1308,1771158766003,0,178,44,7.176254532017144,low,med,True,True
134,178,178,64c9892e8e7e06812b775c0c,29656,1,0,-25,3,179,1,1,a,3,1,orange,1135,1607,499,1,3,green,64c9892e8e7e06812b775c0c,0,a,0,5,f,1280,1771158766003,0,179,470,7.154615356913663,hi,low,True,True
135,179,179,64c9892e8e7e06812b775c0c,29740,1,0,25,3,180,1,1,s,7,0,orange,1501,1538,499,1,7,green,64c9892e8e7e06812b775c0c,0,s,0,5,f,909,1771158766003,1,180,84,6.812345094177479,low,med,True,True
136,180,180,64c9892e8e7e06812b775c0c,29823,1,0,75,3,181,1,1,a,7,0,orange,1962,1977,499,5,7,green,64c9892e8e7e06812b775c0c,0,a,0,5,f,920,1771158766003,0,181,83,6.824373670043086,low,med,True,True
137,181,181,64c9892e8e7e06812b775c0c,29823,1,0,125,3,182,1,0,s,2,0,orange,1531,1377,499,3,1,green,64c9892e8e7e06812b775c0c,0,a,0,5,f,1126,1771158766003,1,182,0,7.026426808699636,hi,med,True,True
138,182,182,64c9892e8e7e06812b775c0c,30303,1,0,175,3,183,1,1,a,1,0,orange,1511,1014,499,3,1,green,64c9892e8e7e06812b775c0c,0,a,0,5,f,1269,1771158766003,0,183,480,7.1459844677143876,hi,hi,True,True
139,183,183,64c9892e8e7e06812b775c0c,30381,0,1,-175,3,184,1,1,a,99,0,orange,1828,1320,499,9,3,green,64c9892e8e7e06812b775c0c,0,a,0,5,f,975,1771158766003,0,184,78,6.882437470997847,nd,med,True,True
140,184,184,64c9892e8e7e06812b775c0c,30471,0,1,-125,3,185,1,1,a,99,1,orange,1498,1099,499,9,5,green,64c9892e8e7e06812b775c0c,0,a,0,5,f,846,1771158766003,0,185,90,6.740519359606223,nd,med,True,True
141,185,185,64c9892e8e7e06812b775c0c,30471,0,1,-75,3,186,1,0,s,99,0,orange,1066,1204,499,9,3,green,64c9892e8e7e06812b775c0c,0,,0,5,f,1754,1771158766003,1,186,0,7.469654172932128,nd,med,False,False
142,186,186,64c9892e8e7e06812b775c0c,30471,0,1,-25,3,187,1,0,s,2,0,orange,1845,1624,499,7,5,green,64c9892e8e7e06812b775c0c,0,a,0,5,f,1301,1771158766003,1,187,0,7.170888478512505,hi,med,True,True
143,187,187,64c9892e8e7e06812b775c0c,30471,0,1,25,3,188,1,0,s,6,1,orange,1117,1239,499,5,3,green,64c9892e8e7e06812b775c0c,0,,0,5,f,1755,1771158766003,1,188,0,7.470224135899966,low,hi,False,False
144,188,188,64c9892e8e7e06812b775c0c,30931,0,1,75,3,189,1,1,s,3,1,orange,1399,1428,499,7,5,green,64c9892e8e7e06812b775c0c,0,s,0,5,f,1291,1771158766003,1,189,460,7.1631723908466425,hi,low,True,True
145,189,189,64c9892e8e7e06812b775c0c,30931,0,1,125,3,190,1,0,s,1,0,orange,1619,1634,499,7,5,green,64c9892e8e7e06812b775c0c,0,,0,5,f,1761,1771158766003,1,190,0,7.473637108496206,hi,hi,False,False
146,190,190,64c9892e8e7e06812b775c0c,31771,0,1,175,3,191,1,1,a,2,0,orange,1214,1514,499,3,1,green,64c9892e8e7e06812b775c0c,0,a,0,5,f,909,1771158766003,0,191,840,6.812345094177479,hi,med,True,True
147,191,191,64c9892e8e7e06812b775c0c,31794,1,0,-175,3,192,1,1,s,5,1,orange,1822,1146,499,1,7,green,64c9892e8e7e06812b775c0c,0,s,0,5,f,1522,1771158766003,1,192,23,7.327780538421632,low,hi,True,True
148,192,192,64c9892e8e7e06812b775c0c,32744,1,0,-125,3,193,1,1,s,2,0,orange,1875,1832,499,5,1,green,64c9892e8e7e06812b775c0c,0,s,0,5,f,799,1771158766003,1,193,950,6.683360945766275,hi,med,True,True
149,193,193,64c9892e8e7e06812b775c0c,32826,1,0,-75,3,194,1,1,a,5,1,orange,1979,1321,499,1,5,green,64c9892e8e7e06812b775c0c,0,a,0,5,f,928,1771158766003,0,194,82,6.833031732786201,low,hi,True,True
150,194,194,64c9892e8e7e06812b775c0c,32922,1,0,-25,3,195,1,1,a,9,1,orange,1523,1718,499,3,7,green,64c9892e8e7e06812b775c0c,0,a,0,5,f,792,1771158766003,0,195,96,6.674561391814426,low,low,True,True
151,195,195,64c9892e8e7e06812b775c0c,33872,1,0,25,3,196,1,1,a,2,0,orange,1440,1054,499,3,5,green,64c9892e8e7e06812b775c0c,0,a,0,5,f,799,1771158766003,0,196,950,6.683360945766275,hi,med,True,True
152,196,196,64c9892e8e7e06812b775c0c,33872,1,0,75,3,197,1,0,a,2,0,orange,1097,1138,499,1,3,green,64c9892e8e7e06812b775c0c,0,s,0,5,f,1601,1771158766003,0,197,0,7.378383712996715,hi,med,True,True
153,197,197,64c9892e8e7e06812b775c0c,34682,1,0,125,3,198,1,1,a,1,0,orange,1720,1837,499,7,3,green,64c9892e8e7e06812b775c0c,0,a,0,5,f,936,1771158766003,0,198,810,6.841615476477592,hi,hi,True,True
154,198,198,64c9892e8e7e06812b775c0c,35382,1,0,175,3,199,1,1,s,2,0,orange,1414,1522,499,3,7,green,64c9892e8e7e06812b775c0c,0,s,0,5,f,1048,1771158766003,1,199,700,6.954638864880987,hi,med,True,True
155,199,199,64c9892e8e7e06812b775c0c,35430,0,1,-175,4,200,1,1,s,9,0,orange,1736,1270,499,5,7,green,64c9892e8e7e06812b775c0c,0,.,0,5,f,46209,1771158766003,1,200,48,10.740929863292568,low,low,False,False
156,200,200,64c9892e8e7e06812b775c0c,35910,0,1,-125,4,201,1,1,s,2,0,orange,1783,1022,499,1,5,green,64c9892e8e7e06812b775c0c,0,s,0,5,f,1274,1771158766003,1,201,480,7.149916836132109,hi,med,True,True
157,201,201,64c9892e8e7e06812b775c0c,35981,0,1,-75,4,202,1,1,s,9,1,orange,1541,1232,499,1,7,green,64c9892e8e7e06812b775c0c,0,s,0,5,f,1044,1771158766003,1,202,71,6.950814768442584,low,low,True,True
158,202,202,64c9892e8e7e06812b775c0c,36059,0,1,-25,4,203,1,1,a,9,1,orange,1551,1114,499,1,5,green,64c9892e8e7e06812b775c0c,0,a,0,5,f,967,1771158766003,0,203,78,6.874198495453294,low,low,True,True
159,203,203,64c9892e8e7e06812b775c0c,36309,0,1,25,4,204,1,1,s,3,1,orange,1909,1508,499,1,3,green,64c9892e8e7e06812b775c0c,0,s,0,5,f,1497,1771158766003,1,204,250,7.311218384419629,hi,low,True,True
160,204,204,64c9892e8e7e06812b775c0c,37069,0,1,75,4,205,1,1,a,4,1,orange,1697,1754,499,3,1,green,64c9892e8e7e06812b775c0c,0,a,0,5,f,988,1771158766003,0,205,760,6.895682697747868,hi,low,True,True
161,205,205,64c9892e8e7e06812b775c0c,37122,0,1,125,4,206,1,1,s,5,0,orange,1352,1900,499,7,3,green,64c9892e8e7e06812b775c0c,0,s,0,5,f,1223,1771158766003,1,206,53,7.109062135687172,low,hi,True,True
162,206,206,64c9892e8e7e06812b775c0c,37168,0,1,175,4,207,1,1,s,3,0,orange,1457,1755,499,9,7,green,64c9892e8e7e06812b775c0c,0,s,0,5,f,1295,1771158766003,1,207,46,7.166265974133638,hi,low,True,True
163,207,207,64c9892e8e7e06812b775c0c,38048,1,0,-175,4,208,1,1,a,0,1,orange,1515,1173,499,7,3,green,64c9892e8e7e06812b775c0c,0,a,0,5,f,872,1771158766003,0,208,880,6.77078942390898,hi,hi,True,True
164,208,208,64c9892e8e7e06812b775c0c,38105,1,0,-125,4,209,1,1,s,99,0,orange,1104,1952,499,9,1,green,64c9892e8e7e06812b775c0c,0,s,0,5,f,1176,1771158766003,1,209,57,7.069874128458572,nd,med,True,True
165,209,209,64c9892e8e7e06812b775c0c,38187,1,0,-75,4,210,1,1,a,99,1,orange,1565,1383,499,9,3,green,64c9892e8e7e06812b775c0c,0,a,0,5,f,929,1771158766003,0,210,82,6.834108738813838,nd,med,True,True
166,210,210,64c9892e8e7e06812b775c0c,38240,1,0,-25,4,211,1,1,s,7,0,orange,1619,1686,499,1,5,green,64c9892e8e7e06812b775c0c,0,s,0,5,f,1222,1771158766003,1,211,53,7.108244139731541,low,med,True,True
167,211,211,64c9892e8e7e06812b775c0c,38284,1,0,25,4,212,1,1,a,8,1,orange,1230,1488,499,5,3,green,64c9892e8e7e06812b775c0c,0,a,0,5,f,1314,1771158766003,0,212,44,7.1808311990445555,low,low,True,True
168,212,212,64c9892e8e7e06812b775c0c,38374,1,0,75,4,213,1,1,a,5,1,orange,1658,1143,499,3,7,green,64c9892e8e7e06812b775c0c,0,a,0,5,f,846,1771158766003,0,213,90,6.740519359606223,low,hi,True,True
169,213,213,64c9892e8e7e06812b775c0c,38449,1,0,125,4,214,1,1,s,7,0,orange,1177,1198,499,5,7,green,64c9892e8e7e06812b775c0c,0,s,0,5,f,1000,1771158766003,1,214,75,6.907755278982137,low,med,True,True
170,214,214,64c9892e8e7e06812b775c0c,38449,1,0,175,4,215,1,0,a,0,0,orange,1735,1296,499,3,5,green,64c9892e8e7e06812b775c0c,0,,0,5,f,1755,1771158766003,0,215,0,7.470224135899966,hi,hi,False,False
171,215,215,64c9892e8e7e06812b775c0c,38535,0,1,-175,4,216,1,1,a,8,1,orange,1773,1358,499,1,7,green,64c9892e8e7e06812b775c0c,0,a,0,5,f,889,1771158766003,0,216,86,6.790097235513905,low,low,True,True
172,216,216,64c9892e8e7e06812b775c0c,39535,0,1,-125,4,217,1,1,a,4,0,orange,1986,1659,499,1,7,green,64c9892e8e7e06812b775c0c,0,a,0,5,f,754,1771158766003,0,217,1000,6.625392368007956,hi,low,True,True
173,217,217,64c9892e8e7e06812b775c0c,40245,0,1,-75,4,218,1,1,a,4,0,orange,1901,1165,499,5,7,green,64c9892e8e7e06812b775c0c,0,a,0,5,f,1040,1771158766003,0,218,710,6.946975992135418,hi,low,True,True
174,218,218,64c9892e8e7e06812b775c0c,40289,0,1,-25,4,219,1,1,a,7,1,orange,1962,1021,499,3,5,green,64c9892e8e7e06812b775c0c,0,a,0,5,f,1307,1771158766003,0,219,44,7.175489713624222,low,med,True,True
175,219,219,64c9892e8e7e06812b775c0c,40352,0,1,25,4,220,1,1,s,7,1,orange,1112,1530,499,1,3,green,64c9892e8e7e06812b775c0c,0,s,0,5,f,1125,1771158766003,1,220,63,7.025538314638521,low,med,True,True
176,220,220,64c9892e8e7e06812b775c0c,41012,0,1,75,4,221,1,1,s,3,0,orange,1491,1322,499,5,1,green,64c9892e8e7e06812b775c0c,0,s,0,5,f,1095,1771158766003,1,221,660,6.9985096422506015,hi,low,True,True
177,221,221,64c9892e8e7e06812b775c0c,41053,0,1,125,4,222,1,1,s,99,0,orange,1250,1883,499,9,7,green,64c9892e8e7e06812b775c0c,0,s,0,5,f,1336,1771158766003,1,222,41,7.197435354096591,nd,med,True,True
178,222,222,64c9892e8e7e06812b775c0c,41053,0,1,175,4,223,1,0,s,8,0,orange,1350,1612,499,3,1,green,64c9892e8e7e06812b775c0c,0,a,0,5,f,1027,1771158766003,1,223,0,6.934397209928558,low,low,True,True
179,223,223,64c9892e8e7e06812b775c0c,41128,1,0,-175,4,224,1,1,a,99,1,orange,1740,1969,499,9,5,green,64c9892e8e7e06812b775c0c,0,a,0,5,f,998,1771158766003,0,224,75,6.905753276311464,nd,med,True,True
180,224,224,64c9892e8e7e06812b775c0c,41278,1,0,-125,4,225,1,1,s,4,0,orange,1690,1847,499,5,3,green,64c9892e8e7e06812b775c0c,0,s,0,5,f,1600,1771158766003,1,225,150,7.377758908227872,hi,low,True,True
181,225,225,64c9892e8e7e06812b775c0c,41928,1,0,-75,4,226,1,1,a,3,0,orange,1423,1293,499,3,1,green,64c9892e8e7e06812b775c0c,0,a,0,5,f,1099,1771158766003,0,226,650,7.002155954403621,hi,low,True,True
182,226,226,64c9892e8e7e06812b775c0c,42007,1,0,-25,4,227,1,1,s,99,0,orange,1801,1631,499,9,1,green,64c9892e8e7e06812b775c0c,0,s,0,5,f,959,1771158766003,1,227,79,6.8658910748834385,nd,med,True,True
183,227,227,64c9892e8e7e06812b775c0c,42109,1,0,25,4,228,1,1,a,6,0,orange,1500,1099,499,3,1,green,64c9892e8e7e06812b775c0c,0,a,0,5,f,732,1771158766003,0,228,102,6.595780513961311,low,hi,True,True
184,228,228,64c9892e8e7e06812b775c0c,42196,1,0,75,4,229,1,1,s,99,0,orange,1349,1554,499,9,1,green,64c9892e8e7e06812b775c0c,0,s,0,5,f,876,1771158766003,1,229,87,6.775366090936392,nd,med,True,True
185,229,229,64c9892e8e7e06812b775c0c,42196,1,0,125,4,230,1,0,s,9,0,orange,1211,1952,499,5,1,green,64c9892e8e7e06812b775c0c,0,a,0,5,f,938,1771158766003,1,230,0,6.843749949006225,low,low,True,True
186,230,230,64c9892e8e7e06812b775c0c,42259,1,0,175,4,231,1,1,a,99,1,orange,1362,1855,499,9,3,green,64c9892e8e7e06812b775c0c,0,a,0,5,f,1116,1771158766003,0,231,63,7.017506142941256,nd,med,True,True
187,231,231,64c9892e8e7e06812b775c0c,42277,0,1,-175,4,232,1,1,a,6,0,orange,1009,1066,499,5,3,green,64c9892e8e7e06812b775c0c,0,a,0,5,f,1567,1771158766003,0,232,18,7.356918242356021,low,hi,True,True
188,232,232,64c9892e8e7e06812b775c0c,42340,0,1,-125,4,233,1,1,a,9,1,orange,1476,1367,499,5,3,green,64c9892e8e7e06812b775c0c,0,a,0,5,f,1124,1771158766003,0,233,63,7.024649030453636,low,low,True,True
189,233,233,64c9892e8e7e06812b775c0c,42380,0,1,-75,4,234,1,1,a,5,1,orange,1599,1544,499,5,3,green,64c9892e8e7e06812b775c0c,0,a,0,5,f,1352,1771158766003,0,234,40,7.20934025660291,low,hi,True,True
190,234,234,64c9892e8e7e06812b775c0c,42448,0,1,-25,4,235,1,1,s,5,1,orange,1063,1459,499,7,5,green,64c9892e8e7e06812b775c0c,0,s,0,5,f,1073,1771158766003,1,235,68,6.9782137426306985,low,hi,True,True
191,235,235,64c9892e8e7e06812b775c0c,42492,0,1,25,4,236,1,1,a,7,1,orange,1686,1672,499,7,5,green,64c9892e8e7e06812b775c0c,0,a,0,5,f,1313,1771158766003,0,236,44,7.180069874302796,low,med,True,True
192,236,236,64c9892e8e7e06812b775c0c,42544,0,1,75,4,237,1,1,s,9,1,orange,1013,1311,499,7,5,green,64c9892e8e7e06812b775c0c,0,s,0,5,f,1231,1771158766003,1,237,52,7.115582126184454,low,low,True,True
193,237,237,64c9892e8e7e06812b775c0c,42631,0,1,125,4,238,1,1,a,7,1,orange,1822,1595,499,3,1,green,64c9892e8e7e06812b775c0c,0,a,0,5,f,877,1771158766003,0,238,87,6.776506992372183,low,med,True,True
194,238,238,64c9892e8e7e06812b775c0c,42716,0,1,175,4,239,1,1,a,6,1,orange,1191,1700,499,1,7,green,64c9892e8e7e06812b775c0c,0,a,0,5,f,899,1771158766003,0,239,85,6.80128303447162,low,hi,True,True
195,239,239,64c9892e8e7e06812b775c0c,42818,1,0,-175,4,240,1,1,a,5,1,orange,1911,1954,499,7,1,green,64c9892e8e7e06812b775c0c,0,a,0,5,f,730,1771158766003,0,240,102,6.593044534142437,low,hi,True,True
196,240,240,64c9892e8e7e06812b775c0c,42933,1,0,-125,4,241,1,1,a,5,1,orange,1694,1704,499,5,1,green,64c9892e8e7e06812b775c0c,0,a,0,5,f,604,1771158766003,0,241,115,6.403574197934815,low,hi,True,True
197,241,241,64c9892e8e7e06812b775c0c,42933,1,0,-75,4,242,1,0,s,2,1,orange,1599,1512,499,1,7,green,64c9892e8e7e06812b775c0c,0,a,0,5,f,669,1771158766003,1,242,0,6.505784060128229,hi,med,True,True
198,242,242,64c9892e8e7e06812b775c0c,43005,1,0,-25,4,243,1,1,a,99,1,orange,1515,1567,499,9,1,green,64c9892e8e7e06812b775c0c,0,a,0,5,f,1035,1771158766003,0,243,72,6.942156705699469,nd,med,True,True
199,243,243,64c9892e8e7e06812b775c0c,43094,1,0,25,4,244,1,1,a,99,0,orange,1324,1864,499,9,5,green,64c9892e8e7e06812b775c0c,0,a,0,5,f,857,1771158766003,0,244,89,6.75343791859778,nd,med,True,True
200,244,244,64c9892e8e7e06812b775c0c,43159,1,0,75,4,245,1,1,s,99,1,orange,1478,1884,499,9,5,green,64c9892e8e7e06812b775c0c,0,s,0,5,f,1097,1771158766003,1,245,65,7.00033446027523,nd,med,True,True
201,245,245,64c9892e8e7e06812b775c0c,43639,1,0,125,4,246,1,1,s,3,0,orange,1694,1187,499,1,7,green,64c9892e8e7e06812b775c0c,0,s,0,5,f,1271,1771158766003,1,246,480,7.147559271189454,hi,low,True,True
202,246,246,64c9892e8e7e06812b775c0c,43715,1,0,175,4,247,1,1,s,6,0,orange,1383,1054,499,1,5,green,64c9892e8e7e06812b775c0c,0,s,0,5,f,986,1771158766003,1,247,76,6.893656354602635,low,hi,True,True
203,247,247,64c9892e8e7e06812b775c0c,44045,0,1,-175,4,248,1,1,s,4,0,orange,1506,1317,499,7,1,green,64c9892e8e7e06812b775c0c,0,s,0,5,f,1421,1771158766003,1,248,330,7.259116128097101,hi,low,True,True
204,248,248,64c9892e8e7e06812b775c0c,44875,0,1,-125,4,249,1,1,a,4,1,orange,1128,1256,499,1,5,green,64c9892e8e7e06812b775c0c,0,a,0,5,f,917,1771158766003,0,249,830,6.821107472256465,hi,low,True,True
205,249,249,64c9892e8e7e06812b775c0c,44875,0,1,-75,5,250,1,0,s,1,0,orange,1825,1795,499,7,1,green,64c9892e8e7e06812b775c0c,0,m,0,5,f,31441,1771158766003,1,250,0,10.3558680526531,hi,hi,False,False
206,250,250,64c9892e8e7e06812b775c0c,45595,0,1,-25,5,251,1,1,a,2,1,orange,1355,1491,499,5,3,green,64c9892e8e7e06812b775c0c,0,a,0,5,f,1028,1771158766003,0,251,720,6.93537044601511,hi,med,True,True
207,251,251,64c9892e8e7e06812b775c0c,46305,0,1,25,5,252,1,1,s,0,0,orange,1440,1552,499,7,5,green,64c9892e8e7e06812b775c0c,0,s,0,5,f,1042,1771158766003,1,252,710,6.948897222313312,hi,hi,True,True
208,252,252,64c9892e8e7e06812b775c0c,47045,0,1,75,5,253,1,1,s,0,0,orange,1472,1850,499,5,1,green,64c9892e8e7e06812b775c0c,0,s,0,5,f,1012,1771158766003,1,253,740,6.919683849847411,hi,hi,True,True
209,253,253,64c9892e8e7e06812b775c0c,47133,0,1,125,5,254,1,1,s,7,1,orange,1091,1698,499,7,1,green,64c9892e8e7e06812b775c0c,0,s,0,5,f,873,1771158766003,1,254,88,6.771935555839602,low,med,True,True
210,254,254,64c9892e8e7e06812b775c0c,47133,0,1,175,5,255,1,0,s,0,1,orange,1757,1605,499,5,7,green,64c9892e8e7e06812b775c0c,0,a,0,5,f,700,1771158766003,1,255,0,6.551080335043404,hi,hi,True,True
211,255,255,64c9892e8e7e06812b775c0c,47153,1,0,-175,5,256,1,1,s,3,0,orange,1222,1882,499,3,7,green,64c9892e8e7e06812b775c0c,0,s,0,5,f,1728,1771158766003,1,256,20,7.454719949364001,hi,low,True,False
212,256,256,64c9892e8e7e06812b775c0c,47234,1,0,-125,5,257,1,1,s,7,0,orange,1253,1647,499,5,1,green,64c9892e8e7e06812b775c0c,0,s,0,5,f,937,1771158766003,1,257,81,6.842683282238422,low,med,True,True
213,257,257,64c9892e8e7e06812b775c0c,47234,1,0,-75,5,258,1,0,s,99,0,orange,1731,1439,499,9,3,green,64c9892e8e7e06812b775c0c,0,,0,5,f,1754,1771158766003,1,258,0,7.469654172932128,nd,med,False,False
214,258,258,64c9892e8e7e06812b775c0c,47287,1,0,-25,5,259,1,1,s,8,0,orange,1105,1161,499,5,1,green,64c9892e8e7e06812b775c0c,0,s,0,5,f,1224,1771158766003,1,259,53,7.1098794630722715,low,low,True,True
215,259,259,64c9892e8e7e06812b775c0c,47359,1,0,25,5,260,1,1,s,99,1,orange,1020,1021,499,9,5,green,64c9892e8e7e06812b775c0c,0,s,0,5,f,1030,1771158766003,1,260,72,6.937314081223682,nd,med,True,True
216,260,260,64c9892e8e7e06812b775c0c,48249,1,0,75,5,261,1,1,s,1,1,orange,1233,1515,499,3,5,green,64c9892e8e7e06812b775c0c,0,s,0,5,f,865,1771158766003,1,261,890,6.762729506931879,hi,hi,True,True
217,261,261,64c9892e8e7e06812b775c0c,48959,1,0,125,5,262,1,1,s,1,1,orange,1264,1350,499,1,3,green,64c9892e8e7e06812b775c0c,0,s,0,5,f,1045,1771158766003,1,262,710,6.951772164398911,hi,hi,True,True
218,262,262,64c9892e8e7e06812b775c0c,49051,1,0,175,5,263,1,1,a,5,1,orange,1375,1035,499,5,7,green,64c9892e8e7e06812b775c0c,0,a,0,5,f,835,1771158766003,0,263,92,6.727431724850855,low,hi,True,True
219,263,263,64c9892e8e7e06812b775c0c,49061,0,1,-175,5,264,1,1,s,0,0,orange,1165,1849,499,5,3,green,64c9892e8e7e06812b775c0c,0,s,0,5,f,1740,1771158766003,1,264,10,7.461640392208575,hi,hi,True,False
220,264,264,64c9892e8e7e06812b775c0c,49501,0,1,-125,5,265,1,1,s,0,0,orange,1485,1907,499,3,7,green,64c9892e8e7e06812b775c0c,0,s,0,5,f,1312,1771158766003,1,265,440,7.179307969504034,hi,hi,True,True
221,265,265,64c9892e8e7e06812b775c0c,49567,0,1,-75,5,266,1,1,s,6,0,orange,1084,1721,499,3,7,green,64c9892e8e7e06812b775c0c,0,s,0,5,f,1093,1771158766003,1,266,66,6.996681488176539,low,hi,True,True
222,266,266,64c9892e8e7e06812b775c0c,49636,0,1,-25,5,267,1,1,a,99,1,orange,1014,1755,499,9,1,green,64c9892e8e7e06812b775c0c,0,a,0,5,f,1062,1771158766003,0,267,69,6.967909201801884,nd,med,True,True
223,267,267,64c9892e8e7e06812b775c0c,49715,0,1,25,5,268,1,1,a,8,1,orange,1581,1945,499,3,5,green,64c9892e8e7e06812b775c0c,0,a,0,5,f,960,1771158766003,0,268,79,6.866933284461882,low,low,True,True
224,268,268,64c9892e8e7e06812b775c0c,50405,0,1,75,5,269,1,1,s,1,0,orange,1488,1695,499,1,7,green,64c9892e8e7e06812b775c0c,0,s,0,5,f,1061,1771158766003,1,269,690,6.966967138613983,hi,hi,True,True
225,269,269,64c9892e8e7e06812b775c0c,51175,0,1,125,5,270,1,1,a,2,0,orange,1678,1859,499,7,1,green,64c9892e8e7e06812b775c0c,0,a,0,5,f,982,1771158766003,0,270,770,6.889591308354466,hi,med,True,True
226,270,270,64c9892e8e7e06812b775c0c,52075,0,1,175,5,271,1,1,s,1,0,orange,1006,1540,499,3,1,green,64c9892e8e7e06812b775c0c,0,s,0,5,f,847,1771158766003,1,271,900,6.741700694652055,hi,hi,True,True
227,271,271,64c9892e8e7e06812b775c0c,52130,1,0,-175,5,272,1,1,s,99,1,orange,1679,1773,499,9,7,green,64c9892e8e7e06812b775c0c,0,s,0,5,f,1199,1771158766003,1,272,55,7.089243155027514,nd,med,True,True
228,272,272,64c9892e8e7e06812b775c0c,52215,1,0,-125,5,273,1,1,s,8,0,orange,1619,1762,499,3,7,green,64c9892e8e7e06812b775c0c,0,s,0,5,f,899,1771158766003,1,273,85,6.80128303447162,low,low,True,True
229,273,273,64c9892e8e7e06812b775c0c,52535,1,0,-75,5,274,1,1,a,2,1,orange,1677,1548,499,7,5,green,64c9892e8e7e06812b775c0c,0,a,0,5,f,1435,1771158766003,0,274,320,7.268920128193722,hi,med,True,True
230,274,274,64c9892e8e7e06812b775c0c,52606,1,0,-25,5,275,1,1,a,6,0,orange,1449,1570,499,5,7,green,64c9892e8e7e06812b775c0c,0,a,0,5,f,1039,1771158766003,0,275,71,6.946013991099227,low,hi,True,True
231,275,275,64c9892e8e7e06812b775c0c,53326,1,0,25,5,276,1,1,a,4,0,orange,1733,1207,499,7,5,green,64c9892e8e7e06812b775c0c,0,a,0,5,f,1028,1771158766003,0,276,720,6.93537044601511,hi,low,True,True
232,276,276,64c9892e8e7e06812b775c0c,54356,1,0,75,5,277,1,1,a,1,1,orange,1978,1884,499,1,5,green,64c9892e8e7e06812b775c0c,0,a,0,5,f,724,1771158766003,0,277,1030,6.584791392385716,hi,hi,True,True
233,277,277,64c9892e8e7e06812b775c0c,54432,1,0,125,5,278,1,1,s,99,1,orange,1717,1466,499,9,7,green,64c9892e8e7e06812b775c0c,0,s,0,5,f,995,1771158766003,1,278,76,6.902742737158593,nd,med,True,True
234,278,278,64c9892e8e7e06812b775c0c,55132,1,0,175,5,279,1,1,s,4,0,orange,1539,1829,499,1,3,green,64c9892e8e7e06812b775c0c,0,s,0,5,f,1051,1771158766003,1,279,700,6.957497370876951,hi,low,True,True
235,279,279,64c9892e8e7e06812b775c0c,55132,0,1,-175,5,280,1,0,s,9,1,orange,1227,1195,499,7,1,green,64c9892e8e7e06812b775c0c,0,a,0,5,f,1708,1771158766003,1,280,0,7.443078374348516,low,low,True,False
236,280,280,64c9892e8e7e06812b775c0c,55212,0,1,-125,5,281,1,1,a,8,1,orange,1787,1897,499,7,5,green,64c9892e8e7e06812b775c0c,0,a,0,5,f,955,1771158766003,0,281,80,6.86171134048073,low,low,True,True
237,281,281,64c9892e8e7e06812b775c0c,55301,0,1,-75,5,282,1,1,a,6,1,orange,1621,1713,499,7,5,green,64c9892e8e7e06812b775c0c,0,a,0,5,f,857,1771158766003,0,282,89,6.75343791859778,low,hi,True,True
238,282,282,64c9892e8e7e06812b775c0c,55372,0,1,-25,5,283,1,1,s,99,0,orange,1091,1974,499,9,7,green,64c9892e8e7e06812b775c0c,0,s,0,5,f,1040,1771158766003,1,283,71,6.946975992135418,nd,med,True,True
239,283,283,64c9892e8e7e06812b775c0c,55439,0,1,25,5,284,1,1,s,6,1,orange,1707,1082,499,7,3,green,64c9892e8e7e06812b775c0c,0,s,0,5,f,1084,1771158766003,1,284,67,6.988413181999592,low,hi,True,True
240,284,284,64c9892e8e7e06812b775c0c,55514,0,1,75,5,285,1,1,a,5,0,orange,1098,1590,499,1,3,green,64c9892e8e7e06812b775c0c,0,a,0,5,f,1001,1771158766003,0,285,75,6.90875477931522,low,hi,True,True
241,285,285,64c9892e8e7e06812b775c0c,56314,0,1,125,5,286,1,1,a,4,0,orange,1584,1920,499,7,3,green,64c9892e8e7e06812b775c0c,0,a,0,5,f,946,1771158766003,0,286,800,6.852242569051878,hi,low,True,True
242,286,286,64c9892e8e7e06812b775c0c,56314,0,1,175,5,287,1,0,a,8,0,orange,1808,1552,499,1,3,green,64c9892e8e7e06812b775c0c,0,,0,5,f,1766,1771158766003,0,287,0,7.476472381163905,low,low,False,False
243,287,287,64c9892e8e7e06812b775c0c,56314,1,0,-175,5,288,1,0,s,3,1,orange,1328,1585,499,5,7,green,64c9892e8e7e06812b775c0c,0,,0,5,f,1759,1771158766003,1,288,0,7.472500744737558,hi,low,False,False
244,288,288,64c9892e8e7e06812b775c0c,56402,1,0,-125,5,289,1,1,a,7,0,orange,1493,1743,499,1,7,green,64c9892e8e7e06812b775c0c,0,a,0,5,f,871,1771158766003,0,289,88,6.769641976852503,low,med,True,True
245,289,289,64c9892e8e7e06812b775c0c,57002,1,0,-75,5,290,1,1,s,1,1,orange,1295,1931,499,5,7,green,64c9892e8e7e06812b775c0c,0,s,0,5,f,1148,1771158766003,1,290,600,7.045776576879511,hi,hi,True,True
246,290,290,64c9892e8e7e06812b775c0c,57802,1,0,-25,5,291,1,1,a,1,0,orange,1843,1268,499,5,1,green,64c9892e8e7e06812b775c0c,0,a,0,5,f,950,1771158766003,0,291,800,6.856461984594587,hi,hi,True,True
247,291,291,64c9892e8e7e06812b775c0c,57848,1,0,25,5,292,1,1,a,5,1,orange,1147,1464,499,3,5,green,64c9892e8e7e06812b775c0c,0,a,0,5,f,1290,1771158766003,0,292,46,7.162397497355718,low,hi,True,True
248,292,292,64c9892e8e7e06812b775c0c,57936,1,0,75,5,293,1,1,s,99,1,orange,1743,1408,499,9,7,green,64c9892e8e7e06812b775c0c,0,s,0,5,f,868,1771158766003,1,293,88,6.7661917146603505,nd,med,True,True
249,293,293,64c9892e8e7e06812b775c0c,58043,1,0,125,5,294,1,1,a,7,0,orange,1734,1146,499,3,7,green,64c9892e8e7e06812b775c0c,0,a,0,5,f,684,1771158766003,0,294,107,6.52795791762255,low,med,True,True
250,294,294,64c9892e8e7e06812b775c0c,58116,1,0,175,5,295,1,1,s,8,1,orange,1390,1606,499,1,3,green,64c9892e8e7e06812b775c0c,0,s,0,5,f,1024,1771158766003,1,295,73,6.931471805599453,low,low,True,True
251,295,295,64c9892e8e7e06812b775c0c,58138,0,1,-175,5,296,1,1,s,9,0,orange,1241,1620,499,3,5,green,64c9892e8e7e06812b775c0c,0,s,0,5,f,1534,1771158766003,1,296,22,7.335633981927201,low,low,True,True
252,296,296,64c9892e8e7e06812b775c0c,58288,0,1,-125,5,297,1,1,a,3,1,orange,1412,1016,499,3,5,green,64c9892e8e7e06812b775c0c,0,a,0,5,f,1603,1771158766003,0,297,150,7.379632152609552,hi,low,True,True
253,297,297,64c9892e8e7e06812b775c0c,59108,0,1,-75,5,298,1,1,a,0,0,orange,1991,1277,499,7,1,green,64c9892e8e7e06812b775c0c,0,a,0,5,f,928,1771158766003,0,298,820,6.833031732786201,hi,hi,True,True
254,298,298,64c9892e8e7e06812b775c0c,59268,0,1,-25,5,299,1,1,s,4,1,orange,1872,1088,499,3,7,green,64c9892e8e7e06812b775c0c,0,s,0,5,f,1586,1771158766003,1,299,160,7.368970402194793,hi,low,True,True
255,299,299,64c9892e8e7e06812b775c0c,60248,0,1,25,6,300,1,1,a,1,0,orange,1487,1626,499,3,7,green,64c9892e8e7e06812b775c0c,0,n,0,5,f,27024,1771158766003,0,300,980,10.20448063904758,hi,hi,False,False
256,300,300,64c9892e8e7e06812b775c0c,60270,0,1,75,6,301,1,1,s,7,0,orange,1055,1182,499,5,3,green,64c9892e8e7e06812b775c0c,0,s,0,5,f,1526,1771158766003,1,301,22,7.330405211844402,low,med,True,True
257,301,301,64c9892e8e7e06812b775c0c,60339,0,1,125,6,302,1,1,a,8,0,orange,1193,1287,499,1,5,green,64c9892e8e7e06812b775c0c,0,a,0,5,f,1065,1771158766003,0,302,69,6.970730078143525,low,low,True,True
258,302,302,64c9892e8e7e06812b775c0c,60449,0,1,175,6,303,1,1,a,6,0,orange,1247,1873,499,3,5,green,64c9892e8e7e06812b775c0c,0,a,0,5,f,649,1771158766003,0,303,110,6.47543271670409,low,hi,True,True
259,303,303,64c9892e8e7e06812b775c0c,60449,1,0,-175,6,304,1,0,s,99,0,orange,1244,1712,499,9,3,green,64c9892e8e7e06812b775c0c,0,,0,5,f,1758,1771158766003,1,304,0,7.471932078245122,nd,med,False,False
260,304,304,64c9892e8e7e06812b775c0c,60544,1,0,-125,6,305,1,1,a,9,1,orange,1352,1148,499,7,3,green,64c9892e8e7e06812b775c0c,0,a,0,5,f,801,1771158766003,0,305,95,6.68586094706836,low,low,True,True
261,305,305,64c9892e8e7e06812b775c0c,60552,1,0,-75,6,306,1,1,s,8,0,orange,1872,1305,499,5,7,green,64c9892e8e7e06812b775c0c,0,s,0,5,f,1674,1771158766003,1,306,8,7.422971251049421,low,low,True,True
262,306,306,64c9892e8e7e06812b775c0c,60626,1,0,-25,6,307,1,1,s,5,1,orange,1480,1249,499,3,1,green,64c9892e8e7e06812b775c0c,0,s,0,5,f,1010,1771158766003,1,307,74,6.917705609835305,low,hi,True,True
263,307,307,64c9892e8e7e06812b775c0c,61106,1,0,25,6,308,1,1,s,1,0,orange,1580,1346,499,5,3,green,64c9892e8e7e06812b775c0c,0,s,0,5,f,1266,1771158766003,1,308,480,7.143617602704121,hi,hi,True,True
264,308,308,64c9892e8e7e06812b775c0c,61716,1,0,75,6,309,1,1,a,3,0,orange,1963,1229,499,7,5,green,64c9892e8e7e06812b775c0c,0,a,0,5,f,1143,1771158766003,0,309,610,7.04141166379481,hi,low,True,True
265,309,309,64c9892e8e7e06812b775c0c,61772,1,0,125,6,310,1,1,s,99,0,orange,1352,1643,499,9,1,green,64c9892e8e7e06812b775c0c,0,s,0,5,f,1191,1771158766003,1,310,56,7.0825485693553,nd,med,True,True
266,310,310,64c9892e8e7e06812b775c0c,61873,1,0,175,6,311,1,1,s,6,0,orange,1169,1423,499,5,1,green,64c9892e8e7e06812b775c0c,0,s,0,5,f,738,1771158766003,1,311,101,6.6039438246004725,low,hi,True,True
267,311,311,64c9892e8e7e06812b775c0c,62673,0,1,-175,6,312,1,1,s,3,0,orange,1592,1188,499,5,3,green,64c9892e8e7e06812b775c0c,0,s,0,5,f,952,1771158766003,1,312,800,6.858565034791365,hi,low,True,True
268,312,312,64c9892e8e7e06812b775c0c,62777,0,1,-125,6,313,1,1,s,7,1,orange,1697,1739,499,7,3,green,64c9892e8e7e06812b775c0c,0,s,0,5,f,707,1771158766003,1,313,104,6.561030665896573,low,med,True,True
269,313,313,64c9892e8e7e06812b775c0c,63687,0,1,-75,6,314,1,1,s,3,0,orange,1822,1173,499,1,5,green,64c9892e8e7e06812b775c0c,0,s,0,5,f,841,1771158766003,1,314,910,6.734591659972948,hi,low,True,True
270,314,314,64c9892e8e7e06812b775c0c,63687,0,1,-25,6,315,1,0,s,0,0,orange,1431,1724,499,1,5,green,64c9892e8e7e06812b775c0c,0,,0,5,f,1756,1771158766003,1,315,0,7.470793774195062,hi,hi,False,False
271,315,315,64c9892e8e7e06812b775c0c,64437,0,1,25,6,316,1,1,a,4,0,orange,1405,1541,499,5,1,green,64c9892e8e7e06812b775c0c,0,a,0,5,f,997,1771158766003,0,316,750,6.904750769961838,hi,low,True,True
272,316,316,64c9892e8e7e06812b775c0c,64508,0,1,75,6,317,1,1,s,8,1,orange,1149,1195,499,7,1,green,64c9892e8e7e06812b775c0c,0,s,0,5,f,1045,1771158766003,1,317,71,6.951772164398911,low,low,True,True
273,317,317,64c9892e8e7e06812b775c0c,64508,0,1,125,6,318,1,0,s,0,0,orange,1699,1781,499,1,7,green,64c9892e8e7e06812b775c0c,0,a,0,5,f,1253,1771158766003,1,318,0,7.133295954896068,hi,hi,True,True
274,318,318,64c9892e8e7e06812b775c0c,64570,0,1,175,6,319,1,1,s,99,1,orange,1826,1367,499,9,5,green,64c9892e8e7e06812b775c0c,0,s,0,5,f,1135,1771158766003,1,319,62,7.034387929915503,nd,med,True,True
275,319,319,64c9892e8e7e06812b775c0c,64720,1,0,-175,6,320,1,1,s,0,1,orange,1553,1880,499,1,3,green,64c9892e8e7e06812b775c0c,0,s,0,5,f,1599,1771158766003,1,320,150,7.377133712833954,hi,hi,True,True
276,320,320,64c9892e8e7e06812b775c0c,64744,1,0,-125,6,321,1,1,a,99,1,orange,1804,1020,499,9,3,green,64c9892e8e7e06812b775c0c,0,a,0,5,f,1512,1771158766003,0,321,24,7.321188556739478,nd,med,True,True
277,321,321,64c9892e8e7e06812b775c0c,65694,1,0,-75,6,322,1,1,s,2,1,orange,1883,1702,499,5,7,green,64c9892e8e7e06812b775c0c,0,s,0,5,f,796,1771158766003,1,322,950,6.679599185844383,hi,med,True,True
278,322,322,64c9892e8e7e06812b775c0c,66494,1,0,-25,6,323,1,1,s,2,1,orange,1032,1941,499,7,3,green,64c9892e8e7e06812b775c0c,0,s,0,5,f,948,1771158766003,1,323,800,6.854354502255021,hi,med,True,True
279,323,323,64c9892e8e7e06812b775c0c,66530,1,0,25,6,324,1,1,s,99,1,orange,1835,1946,499,9,7,green,64c9892e8e7e06812b775c0c,0,s,0,5,f,1387,1771158766003,1,324,36,7.234898420314831,nd,med,True,True
280,324,324,64c9892e8e7e06812b775c0c,66970,1,0,75,6,325,1,1,a,0,1,orange,1541,1727,499,3,1,green,64c9892e8e7e06812b775c0c,0,a,0,5,f,1314,1771158766003,0,325,440,7.1808311990445555,hi,hi,True,True
281,325,325,64c9892e8e7e06812b775c0c,67014,1,0,125,6,326,1,1,a,6,0,orange,1879,1772,499,1,3,green,64c9892e8e7e06812b775c0c,0,a,0,5,f,1311,1771158766003,0,326,44,7.1785454837637,low,hi,True,True
282,326,326,64c9892e8e7e06812b775c0c,67914,1,0,175,6,327,1,1,s,3,1,orange,1044,1087,499,7,3,green,64c9892e8e7e06812b775c0c,0,s,0,5,f,848,1771158766003,1,327,900,6.742880635791903,hi,low,True,True
283,327,327,64c9892e8e7e06812b775c0c,67970,0,1,-175,6,328,1,1,a,99,0,orange,1514,1608,499,9,5,green,64c9892e8e7e06812b775c0c,0,a,0,5,f,1190,1771158766003,0,328,56,7.081708586105575,nd,med,True,True
284,328,328,64c9892e8e7e06812b775c0c,67970,0,1,-125,6,329,1,0,a,99,1,orange,1032,1612,499,9,3,green,64c9892e8e7e06812b775c0c,0,s,0,5,f,1140,1771158766003,0,329,0,7.038783541388542,nd,med,True,True
285,329,329,64c9892e8e7e06812b775c0c,68360,0,1,-75,6,330,1,1,s,4,0,orange,1482,1690,499,3,5,green,64c9892e8e7e06812b775c0c,0,s,0,5,f,1356,1771158766003,1,330,390,7.212294468500341,hi,low,True,True
286,330,330,64c9892e8e7e06812b775c0c,68375,0,1,-25,6,331,1,1,s,8,1,orange,1644,1185,499,7,3,green,64c9892e8e7e06812b775c0c,0,s,0,5,f,1597,1771158766003,1,331,15,7.3758821482150125,low,low,True,True
287,331,331,64c9892e8e7e06812b775c0c,69375,0,1,25,6,332,1,1,a,3,0,orange,1694,1158,499,7,1,green,64c9892e8e7e06812b775c0c,0,a,0,5,f,746,1771158766003,0,332,1000,6.61472560020376,hi,low,True,True
288,332,332,64c9892e8e7e06812b775c0c,69475,0,1,75,6,333,1,1,s,6,1,orange,1709,1310,499,7,1,green,64c9892e8e7e06812b775c0c,0,s,0,5,f,746,1771158766003,1,333,100,6.61472560020376,low,hi,True,True
289,333,333,64c9892e8e7e06812b775c0c,69585,0,1,125,6,334,1,1,a,9,1,orange,1539,1017,499,3,1,green,64c9892e8e7e06812b775c0c,0,a,0,5,f,654,1771158766003,0,334,110,6.483107351457199,low,low,True,True
290,334,334,64c9892e8e7e06812b775c0c,70145,0,1,175,6,335,1,1,s,4,1,orange,1191,1699,499,1,5,green,64c9892e8e7e06812b775c0c,0,s,0,5,f,1193,1771158766003,1,335,560,7.084226422097916,hi,low,True,True
291,335,335,64c9892e8e7e06812b775c0c,70247,1,0,-175,6,336,1,1,s,7,0,orange,1622,1878,499,3,1,green,64c9892e8e7e06812b775c0c,0,s,0,5,f,735,1771158766003,1,336,102,6.5998704992128365,low,med,True,True
292,336,336,64c9892e8e7e06812b775c0c,70311,1,0,-125,6,337,1,1,s,8,1,orange,1085,1926,499,7,3,green,64c9892e8e7e06812b775c0c,0,s,0,5,f,1113,1771158766003,1,337,64,7.014814351275545,low,low,True,True
293,337,337,64c9892e8e7e06812b775c0c,71191,1,0,-75,6,338,1,1,s,3,1,orange,1646,1284,499,3,5,green,64c9892e8e7e06812b775c0c,0,s,0,5,f,874,1771158766003,1,338,880,6.773080375655535,hi,low,True,True
294,338,338,64c9892e8e7e06812b775c0c,71275,1,0,-25,6,339,1,1,s,8,0,orange,1121,1009,499,7,5,green,64c9892e8e7e06812b775c0c,0,s,0,5,f,910,1771158766003,1,339,84,6.813444599510896,low,low,True,True
295,339,339,64c9892e8e7e06812b775c0c,71339,1,0,25,6,340,1,1,a,3,1,orange,1144,1306,499,9,7,green,64c9892e8e7e06812b775c0c,0,a,0,5,f,1115,1771158766003,0,340,64,7.016609683894219,hi,low,True,True
296,340,340,64c9892e8e7e06812b775c0c,71434,1,0,75,6,341,1,1,a,5,1,orange,1158,1469,499,7,3,green,64c9892e8e7e06812b775c0c,0,a,0,5,f,799,1771158766003,0,341,95,6.683360945766275,low,hi,True,True
297,341,341,64c9892e8e7e06812b775c0c,71527,1,0,125,6,342,1,1,a,7,1,orange,1322,1124,499,7,1,green,64c9892e8e7e06812b775c0c,0,a,0,5,f,820,1771158766003,0,342,93,6.709304340258298,low,med,True,True
298,342,342,64c9892e8e7e06812b775c0c,72707,1,0,175,6,343,1,1,a,4,0,orange,1615,1633,499,3,1,green,64c9892e8e7e06812b775c0c,0,a,0,5,f,574,1771158766003,0,343,1180,6.352629396319567,hi,low,True,True
299,343,343,64c9892e8e7e06812b775c0c,72774,0,1,-175,6,344,1,1,a,99,1,orange,1388,1123,499,9,3,green,64c9892e8e7e06812b775c0c,0,a,0,5,f,1083,1771158766003,0,344,67,6.9874902470009905,nd,med,True,True
300,344,344,64c9892e8e7e06812b775c0c,72873,0,1,-125,6,345,1,1,a,99,1,orange,1815,1550,499,9,5,green,64c9892e8e7e06812b775c0c,0,a,0,5,f,760,1771158766003,0,345,99,6.633318433280377,nd,med,True,True
301,345,345,64c9892e8e7e06812b775c0c,73913,0,1,-75,6,346,1,1,a,4,1,orange,1918,1168,499,3,5,green,64c9892e8e7e06812b775c0c,0,a,0,5,f,715,1771158766003,0,346,1040,6.5722825426940075,hi,low,True,True
302,346,346,64c9892e8e7e06812b775c0c,74963,0,1,-25,6,347,1,1,a,1,1,orange,1892,1226,499,1,5,green,64c9892e8e7e06812b775c0c,0,a,0,5,f,700,1771158766003,0,347,1050,6.551080335043404,hi,hi,True,True
303,347,347,64c9892e8e7e06812b775c0c,75015,0,1,25,6,348,1,1,s,99,1,orange,1477,1205,499,9,7,green,64c9892e8e7e06812b775c0c,0,s,0,5,f,1227,1771158766003,1,348,52,7.112327444710911,nd,med,True,True
304,348,348,64c9892e8e7e06812b775c0c,75064,0,1,75,6,349,1,1,s,8,0,orange,1265,1581,499,1,3,green,64c9892e8e7e06812b775c0c,0,s,0,5,f,1259,1771158766003,1,349,49,7.138073034044347,low,low,True,True
305,349,349,64c9892e8e7e06812b775c0c,75152,0,1,125,7,350,1,1,a,8,0,orange,1151,1221,499,5,7,green,64c9892e8e7e06812b775c0c,0,",",0,5,f,81034,1771158766003,0,350,88,11.302624098669314,low,low,False,False
306,350,350,64c9892e8e7e06812b775c0c,75152,0,1,175,7,351,1,0,s,3,0,orange,1874,1360,499,1,7,green,64c9892e8e7e06812b775c0c,0,,0,5,f,1760,1771158766003,1,351,0,7.473069088032197,hi,low,False,False
307,351,351,64c9892e8e7e06812b775c0c,75152,1,0,-175,7,352,1,0,s,4,1,orange,1344,1247,499,3,7,green,64c9892e8e7e06812b775c0c,0,,0,5,f,1757,1771158766003,1,352,0,7.471363088187097,hi,low,False,False
308,352,352,64c9892e8e7e06812b775c0c,75242,1,0,-125,7,353,1,1,s,99,0,orange,1945,1935,499,9,1,green,64c9892e8e7e06812b775c0c,0,s,0,5,f,851,1771158766003,1,353,90,6.7464121285733745,nd,med,True,True
309,353,353,64c9892e8e7e06812b775c0c,75304,1,0,-75,7,354,1,1,s,99,1,orange,1223,1857,499,9,7,green,64c9892e8e7e06812b775c0c,0,s,0,5,f,1127,1771158766003,1,354,62,7.027314514039777,nd,med,True,True
310,354,354,64c9892e8e7e06812b775c0c,75361,1,0,-25,7,355,1,1,s,9,1,orange,1557,1097,499,5,3,green,64c9892e8e7e06812b775c0c,0,s,0,5,f,1177,1771158766003,1,355,57,7.0707241072602764,low,low,True,True
311,355,355,64c9892e8e7e06812b775c0c,75442,1,0,25,7,356,1,1,s,99,1,orange,1098,1684,499,9,1,green,64c9892e8e7e06812b775c0c,0,s,0,5,f,941,1771158766003,1,356,81,6.846943139585379,nd,med,True,True
312,356,356,64c9892e8e7e06812b775c0c,76322,1,0,75,7,357,1,1,s,4,0,orange,1899,1585,499,7,3,green,64c9892e8e7e06812b775c0c,0,s,0,5,f,867,1771158766003,1,357,880,6.7650389767805414,hi,low,True,True
313,357,357,64c9892e8e7e06812b775c0c,76400,1,0,125,7,358,1,1,a,5,1,orange,1830,1464,499,1,5,green,64c9892e8e7e06812b775c0c,0,a,0,5,f,970,1771158766003,0,358,78,6.877296071497429,low,hi,True,True
314,358,358,64c9892e8e7e06812b775c0c,77430,1,0,175,7,359,1,1,s,4,0,orange,1222,1777,499,5,1,green,64c9892e8e7e06812b775c0c,0,s,0,5,f,716,1771158766003,1,359,1030,6.573680166960646,hi,low,True,True
315,359,359,64c9892e8e7e06812b775c0c,78250,0,1,-175,7,360,1,1,a,2,1,orange,1826,1697,499,1,5,green,64c9892e8e7e06812b775c0c,0,a,0,5,f,928,1771158766003,0,360,820,6.833031732786201,hi,med,True,True
316,360,360,64c9892e8e7e06812b775c0c,79270,0,1,-125,7,361,1,1,a,2,1,orange,1951,1806,499,3,1,green,64c9892e8e7e06812b775c0c,0,a,0,5,f,734,1771158766003,0,361,1020,6.598509028614515,hi,med,True,True
317,361,361,64c9892e8e7e06812b775c0c,80080,0,1,-75,7,362,1,1,a,0,1,orange,1458,1691,499,5,7,green,64c9892e8e7e06812b775c0c,0,a,0,5,f,941,1771158766003,0,362,810,6.846943139585379,hi,hi,True,True
318,362,362,64c9892e8e7e06812b775c0c,80167,0,1,-25,7,363,1,1,s,99,0,orange,1886,1988,499,9,1,green,64c9892e8e7e06812b775c0c,0,s,0,5,f,885,1771158766003,1,363,87,6.785587645007929,nd,med,True,True
319,363,363,64c9892e8e7e06812b775c0c,80266,0,1,25,7,364,1,1,a,9,1,orange,1052,1444,499,3,7,green,64c9892e8e7e06812b775c0c,0,a,0,5,f,758,1771158766003,0,364,99,6.630683385642372,low,low,True,True
320,364,364,64c9892e8e7e06812b775c0c,80300,0,1,75,7,365,1,1,s,8,0,orange,1213,1313,499,5,1,green,64c9892e8e7e06812b775c0c,0,s,0,5,f,1407,1771158766003,1,365,34,7.249215057114389,low,low,True,True
321,365,365,64c9892e8e7e06812b775c0c,80440,0,1,125,7,366,1,1,s,3,1,orange,1469,1151,499,3,7,green,64c9892e8e7e06812b775c0c,0,s,0,5,f,1607,1771158766003,1,366,140,7.382124365737512,hi,low,True,True
322,366,366,64c9892e8e7e06812b775c0c,80498,0,1,175,7,367,1,1,s,99,0,orange,1036,1012,499,9,7,green,64c9892e8e7e06812b775c0c,0,s,0,5,f,1175,1771158766003,1,367,58,7.069023426578259,nd,med,True,True
323,367,367,64c9892e8e7e06812b775c0c,80563,1,0,-175,7,368,1,1,a,5,1,orange,1950,1399,499,5,1,green,64c9892e8e7e06812b775c0c,0,a,0,5,f,1102,1771158766003,0,368,65,7.004881989712859,low,hi,True,True
324,368,368,64c9892e8e7e06812b775c0c,80614,1,0,-125,7,369,1,1,a,5,0,orange,1190,1404,499,1,7,green,64c9892e8e7e06812b775c0c,0,a,0,5,f,1241,1771158766003,0,369,51,7.123672785204607,low,hi,True,True
325,369,369,64c9892e8e7e06812b775c0c,80694,1,0,-75,7,370,1,1,a,6,1,orange,1603,1885,499,5,1,green,64c9892e8e7e06812b775c0c,0,a,0,5,f,955,1771158766003,0,370,80,6.86171134048073,low,hi,True,True
326,370,370,64c9892e8e7e06812b775c0c,80774,1,0,-25,7,371,1,1,a,9,0,orange,1065,1424,499,7,5,green,64c9892e8e7e06812b775c0c,0,a,0,5,f,952,1771158766003,0,371,80,6.858565034791365,low,low,True,True
327,371,371,64c9892e8e7e06812b775c0c,80881,1,0,25,7,372,1,1,a,7,0,orange,1956,1458,499,7,3,green,64c9892e8e7e06812b775c0c,0,a,0,5,f,679,1771158766003,0,372,107,6.520621127558696,low,med,True,True
328,372,372,64c9892e8e7e06812b775c0c,81771,1,0,75,7,373,1,1,s,4,0,orange,1173,1724,499,7,1,green,64c9892e8e7e06812b775c0c,0,s,0,5,f,864,1771158766003,1,373,890,6.761572768804055,hi,low,True,True
329,373,373,64c9892e8e7e06812b775c0c,81771,1,0,125,7,374,1,0,a,3,0,orange,1697,1534,499,5,3,green,64c9892e8e7e06812b775c0c,0,,0,5,f,1767,1771158766003,0,374,0,7.477038472319696,hi,low,False,False
330,374,374,64c9892e8e7e06812b775c0c,81840,1,0,175,7,375,1,1,a,99,1,orange,1184,1036,499,9,5,green,64c9892e8e7e06812b775c0c,0,a,0,5,f,1056,1771158766003,0,375,69,6.962243464266207,nd,med,True,True
331,375,375,64c9892e8e7e06812b775c0c,82480,0,1,-175,7,376,1,1,s,1,0,orange,1982,1072,499,5,1,green,64c9892e8e7e06812b775c0c,0,s,0,5,f,1107,1771158766003,1,376,640,7.009408932708637,hi,hi,True,True
332,376,376,64c9892e8e7e06812b775c0c,82574,0,1,-125,7,377,1,1,a,5,1,orange,1485,1922,499,5,3,green,64c9892e8e7e06812b775c0c,0,a,0,5,f,809,1771158766003,0,377,94,6.695798917058491,low,hi,True,True
333,377,377,64c9892e8e7e06812b775c0c,82649,0,1,-75,7,378,1,1,s,7,1,orange,1279,1300,499,1,5,green,64c9892e8e7e06812b775c0c,0,s,0,5,f,1001,1771158766003,1,378,75,6.90875477931522,low,med,True,True
334,378,378,64c9892e8e7e06812b775c0c,83509,0,1,-25,7,379,1,1,a,2,1,orange,1297,1209,499,7,1,green,64c9892e8e7e06812b775c0c,0,a,0,5,f,894,1771158766003,0,379,860,6.795705775173514,hi,med,True,True
335,379,379,64c9892e8e7e06812b775c0c,83598,0,1,25,7,380,1,1,a,7,1,orange,1906,1586,499,1,3,green,64c9892e8e7e06812b775c0c,0,a,0,5,f,860,1771158766003,0,380,89,6.756932389247553,low,med,True,True
336,380,380,64c9892e8e7e06812b775c0c,83700,0,1,75,7,381,1,1,a,9,0,orange,1542,1685,499,7,1,green,64c9892e8e7e06812b775c0c,0,a,0,5,f,729,1771158766003,0,381,102,6.591673732008658,low,low,True,True
337,381,381,64c9892e8e7e06812b775c0c,84210,0,1,125,7,382,1,1,s,3,1,orange,1591,1011,499,7,5,green,64c9892e8e7e06812b775c0c,0,s,0,5,f,1242,1771158766003,1,382,510,7.124478262493424,hi,low,True,True
338,382,382,64c9892e8e7e06812b775c0c,84800,0,1,175,7,383,1,1,s,1,1,orange,1144,1619,499,1,7,green,64c9892e8e7e06812b775c0c,0,s,0,5,f,1159,1771158766003,1,383,590,7.055312843339752,hi,hi,True,True
339,383,383,64c9892e8e7e06812b775c0c,84901,1,0,-175,7,384,1,1,a,99,0,orange,1639,1249,499,9,7,green,64c9892e8e7e06812b775c0c,0,a,0,5,f,744,1771158766003,0,384,101,6.612041034833092,nd,med,True,True
340,384,384,64c9892e8e7e06812b775c0c,84977,1,0,-125,7,385,1,1,a,6,1,orange,1074,1904,499,5,3,green,64c9892e8e7e06812b775c0c,0,a,0,5,f,990,1771158766003,0,385,76,6.897704943128636,low,hi,True,True
341,385,385,64c9892e8e7e06812b775c0c,85717,1,0,-75,7,386,1,1,a,1,0,orange,1792,1828,499,3,5,green,64c9892e8e7e06812b775c0c,0,a,0,5,f,1008,1771158766003,0,386,740,6.915723448631314,hi,hi,True,True
342,386,386,64c9892e8e7e06812b775c0c,86457,1,0,-25,7,387,1,1,s,2,0,orange,1166,1001,499,7,3,green,64c9892e8e7e06812b775c0c,0,s,0,5,f,1010,1771158766003,1,387,740,6.917705609835305,hi,med,True,True
343,387,387,64c9892e8e7e06812b775c0c,86513,1,0,25,7,388,1,1,s,8,1,orange,1327,1348,499,3,1,green,64c9892e8e7e06812b775c0c,0,s,0,5,f,1193,1771158766003,1,388,56,7.084226422097916,low,low,True,True
344,388,388,64c9892e8e7e06812b775c0c,86513,1,0,75,7,389,1,0,s,7,0,orange,1540,1089,499,5,3,green,64c9892e8e7e06812b775c0c,0,,0,5,f,1755,1771158766003,1,389,0,7.470224135899966,low,med,False,False
345,389,389,64c9892e8e7e06812b775c0c,86513,1,0,125,7,390,1,0,a,0,1,orange,1439,1337,499,1,7,green,64c9892e8e7e06812b775c0c,0,,0,5,f,1756,1771158766003,0,390,0,7.470793774195062,hi,hi,False,False
346,390,390,64c9892e8e7e06812b775c0c,86513,1,0,175,7,391,1,0,s,0,0,orange,1599,1220,499,7,5,green,64c9892e8e7e06812b775c0c,0,,0,5,f,1762,1771158766003,1,391,0,7.474204806496124,hi,hi,False,False
347,391,391,64c9892e8e7e06812b775c0c,86605,0,1,-175,7,392,1,1,a,99,0,orange,1889,1241,499,9,3,green,64c9892e8e7e06812b775c0c,0,a,0,5,f,826,1771158766003,0,392,92,6.716594773520978,nd,med,True,True
348,392,392,64c9892e8e7e06812b775c0c,87025,0,1,-125,7,393,1,1,s,3,0,orange,1017,1446,499,7,3,green,64c9892e8e7e06812b775c0c,0,s,0,5,f,1326,1771158766003,1,393,420,7.189922170745808,hi,low,True,True
349,393,393,64c9892e8e7e06812b775c0c,87083,0,1,-75,7,394,1,1,s,6,0,orange,1008,1787,499,1,3,green,64c9892e8e7e06812b775c0c,0,s,0,5,f,1175,1771158766003,1,394,58,7.069023426578259,low,hi,True,True
350,394,394,64c9892e8e7e06812b775c0c,87088,0,1,-25,7,395,1,1,s,5,0,orange,1249,1740,499,3,5,green,64c9892e8e7e06812b775c0c,0,s,0,5,f,1696,1771158766003,1,395,5,7.436027816351848,low,hi,True,True
351,395,395,64c9892e8e7e06812b775c0c,88048,0,1,25,7,396,1,1,s,1,0,orange,1654,1685,499,7,5,green,64c9892e8e7e06812b775c0c,0,s,0,5,f,793,1771158766003,1,396,960,6.675823221634848,hi,hi,True,True
352,396,396,64c9892e8e7e06812b775c0c,88131,0,1,75,7,397,1,1,a,99,0,orange,1203,1463,499,9,3,green,64c9892e8e7e06812b775c0c,0,a,0,5,f,924,1771158766003,0,397,83,6.828712071641684,nd,med,True,True
353,397,397,64c9892e8e7e06812b775c0c,89041,0,1,125,7,398,1,1,a,0,0,orange,1764,1787,499,1,5,green,64c9892e8e7e06812b775c0c,0,a,0,5,f,845,1771158766003,0,398,910,6.739336627357174,hi,hi,True,True
354,398,398,64c9892e8e7e06812b775c0c,89099,0,1,175,7,399,1,1,s,5,1,orange,1702,1966,499,1,3,green,64c9892e8e7e06812b775c0c,0,s,0,5,f,1174,1771158766003,1,399,58,7.068172000388042,low,hi,True,True
355,399,399,64c9892e8e7e06812b775c0c,89206,1,0,-175,8,400,1,1,a,6,0,orange,1306,1815,499,7,5,green,64c9892e8e7e06812b775c0c,0,",",0,5,f,36648,1771158766003,0,400,107,10.50911413556658,low,hi,False,False
356,400,400,64c9892e8e7e06812b775c0c,89289,1,0,-125,8,401,1,1,a,9,0,orange,1177,1250,499,3,1,green,64c9892e8e7e06812b775c0c,0,a,0,5,f,917,1771158766003,0,401,83,6.821107472256465,low,low,True,True
357,401,401,64c9892e8e7e06812b775c0c,89381,1,0,-75,8,402,1,1,s,6,1,orange,1994,1370,499,7,1,green,64c9892e8e7e06812b775c0c,0,s,0,5,f,829,1771158766003,1,402,92,6.720220155135295,low,hi,True,True
358,402,402,64c9892e8e7e06812b775c0c,89443,1,0,-25,8,403,1,1,s,5,1,orange,1360,1797,499,3,7,green,64c9892e8e7e06812b775c0c,0,s,0,5,f,1134,1771158766003,1,403,62,7.033506484287697,low,hi,True,True
359,403,403,64c9892e8e7e06812b775c0c,89531,1,0,25,8,404,1,1,s,6,0,orange,1310,1086,499,1,7,green,64c9892e8e7e06812b775c0c,0,s,0,5,f,874,1771158766003,1,404,88,6.773080375655535,low,hi,True,True
360,404,404,64c9892e8e7e06812b775c0c,89617,1,0,75,8,405,1,1,s,9,1,orange,1143,1152,499,1,7,green,64c9892e8e7e06812b775c0c,0,s,0,5,f,890,1771158766003,1,405,86,6.7912214627261855,low,low,True,True
361,405,405,64c9892e8e7e06812b775c0c,90587,1,0,125,8,406,1,1,a,2,1,orange,1418,1896,499,5,7,green,64c9892e8e7e06812b775c0c,0,a,0,5,f,778,1771158766003,0,406,970,6.656726524178391,hi,med,True,True
362,406,406,64c9892e8e7e06812b775c0c,91507,1,0,175,8,407,1,1,s,4,1,orange,1099,1211,499,1,3,green,64c9892e8e7e06812b775c0c,0,s,0,5,f,830,1771158766003,1,407,920,6.721425700790643,hi,low,True,True
363,407,407,64c9892e8e7e06812b775c0c,91907,0,1,-175,8,408,1,1,s,1,1,orange,1905,1190,499,3,1,green,64c9892e8e7e06812b775c0c,0,s,0,5,f,1354,1771158766003,1,408,400,7.21081845347222,hi,hi,True,True
364,408,408,64c9892e8e7e06812b775c0c,92002,0,1,-125,8,409,1,1,s,6,1,orange,1075,1978,499,5,7,green,64c9892e8e7e06812b775c0c,0,s,0,5,f,801,1771158766003,1,409,95,6.68586094706836,low,hi,True,True
365,409,409,64c9892e8e7e06812b775c0c,92712,0,1,-75,8,410,1,1,s,3,0,orange,1454,1792,499,1,5,green,64c9892e8e7e06812b775c0c,0,s,0,5,f,1043,1771158766003,1,410,710,6.949856455000773,hi,low,True,True
366,410,410,64c9892e8e7e06812b775c0c,93582,0,1,-25,8,411,1,1,a,3,1,orange,1065,1606,499,3,1,green,64c9892e8e7e06812b775c0c,0,a,0,5,f,880,1771158766003,0,411,870,6.779921907472252,hi,low,True,True
367,411,411,64c9892e8e7e06812b775c0c,94192,0,1,25,8,412,1,1,a,1,0,orange,1500,1115,499,5,3,green,64c9892e8e7e06812b775c0c,0,a,0,5,f,1136,1771158766003,0,412,610,7.035268599281097,hi,hi,True,True
368,412,412,64c9892e8e7e06812b775c0c,94852,0,1,75,8,413,1,1,a,4,0,orange,1958,1980,499,7,5,green,64c9892e8e7e06812b775c0c,0,a,0,5,f,1092,1771158766003,0,413,660,6.9957661563048505,hi,low,True,True
369,413,413,64c9892e8e7e06812b775c0c,94902,0,1,125,8,414,1,1,s,7,0,orange,1280,1266,499,3,5,green,64c9892e8e7e06812b775c0c,0,s,0,5,f,1252,1771158766003,1,414,50,7.132497551660044,low,med,True,True
370,414,414,64c9892e8e7e06812b775c0c,95792,0,1,175,8,415,1,1,a,0,1,orange,1027,2000,499,7,1,green,64c9892e8e7e06812b775c0c,0,a,0,5,f,863,1771158766003,0,415,890,6.760414691083428,hi,hi,True,True
371,415,415,64c9892e8e7e06812b775c0c,95889,1,0,-175,8,416,1,1,s,6,1,orange,1232,1409,499,3,1,green,64c9892e8e7e06812b775c0c,0,s,0,5,f,785,1771158766003,1,416,97,6.665683717782408,low,hi,True,True
372,416,416,64c9892e8e7e06812b775c0c,95955,1,0,-125,8,417,1,1,a,99,0,orange,1762,1738,499,9,3,green,64c9892e8e7e06812b775c0c,0,a,0,5,f,1089,1771158766003,0,417,66,6.9930151229329605,nd,med,True,True
373,417,417,64c9892e8e7e06812b775c0c,96805,1,0,-75,8,418,1,1,a,3,0,orange,1956,1191,499,5,7,green,64c9892e8e7e06812b775c0c,0,a,0,5,f,903,1771158766003,0,418,850,6.805722553416985,hi,low,True,True
374,418,418,64c9892e8e7e06812b775c0c,97935,1,0,-25,8,419,1,1,a,0,1,orange,1358,1292,499,3,7,green,64c9892e8e7e06812b775c0c,0,a,0,5,f,619,1771158766003,0,419,1130,6.428105272684596,hi,hi,True,True
375,419,419,64c9892e8e7e06812b775c0c,98019,1,0,25,8,420,1,1,s,99,0,orange,1544,1131,499,9,5,green,64c9892e8e7e06812b775c0c,0,s,0,5,f,915,1771158766003,1,420,84,6.818924065275521,nd,med,True,True
376,420,420,64c9892e8e7e06812b775c0c,98089,1,0,75,8,421,1,1,s,7,0,orange,1247,1627,499,5,7,green,64c9892e8e7e06812b775c0c,0,s,0,5,f,1052,1771158766003,1,421,70,6.9584483932976555,low,med,True,True
377,421,421,64c9892e8e7e06812b775c0c,98177,1,0,125,8,422,1,1,s,99,1,orange,1946,1212,499,9,5,green,64c9892e8e7e06812b775c0c,0,s,0,5,f,869,1771158766003,1,422,88,6.767343125265392,nd,med,True,True
378,422,422,64c9892e8e7e06812b775c0c,98897,1,0,175,8,423,1,1,a,4,0,orange,1270,1280,499,5,7,green,64c9892e8e7e06812b775c0c,0,a,0,5,f,1033,1771158766003,0,423,720,6.940222469119639,hi,low,True,True
379,423,423,64c9892e8e7e06812b775c0c,98962,0,1,-175,8,424,1,1,a,6,1,orange,1565,1958,499,3,7,green,64c9892e8e7e06812b775c0c,0,a,0,5,f,1104,1771158766003,0,424,65,7.00669522683704,low,hi,True,True
380,424,424,64c9892e8e7e06812b775c0c,99050,0,1,-125,8,425,1,1,a,8,0,orange,1548,1804,499,1,3,green,64c9892e8e7e06812b775c0c,0,a,0,5,f,871,1771158766003,0,425,88,6.769641976852503,low,low,True,True
381,425,425,64c9892e8e7e06812b775c0c,99140,0,1,-75,8,426,1,1,s,6,0,orange,1654,1892,499,7,3,green,64c9892e8e7e06812b775c0c,0,s,0,5,f,852,1771158766003,1,426,90,6.747586526829315,low,hi,True,True
382,426,426,64c9892e8e7e06812b775c0c,99248,0,1,-25,8,427,1,1,a,99,1,orange,1022,1851,499,9,7,green,64c9892e8e7e06812b775c0c,0,a,0,5,f,674,1771158766003,0,427,108,6.513230110912307,nd,med,True,True
383,427,427,64c9892e8e7e06812b775c0c,99284,0,1,25,8,428,1,1,s,99,1,orange,1012,1272,499,9,7,green,64c9892e8e7e06812b775c0c,0,s,0,5,f,1389,1771158766003,1,428,36,7.236339342754344,nd,med,True,True
384,428,428,64c9892e8e7e06812b775c0c,99350,0,1,75,8,429,1,1,s,99,0,orange,1220,1462,499,9,5,green,64c9892e8e7e06812b775c0c,0,s,0,5,f,1091,1771158766003,1,429,66,6.994849985833071,nd,med,True,True
385,429,429,64c9892e8e7e06812b775c0c,99770,0,1,125,8,430,1,1,s,2,0,orange,1574,1990,499,3,5,green,64c9892e8e7e06812b775c0c,0,s,0,5,f,1331,1771158766003,1,430,420,7.193685818395112,hi,med,True,True
386,430,430,64c9892e8e7e06812b775c0c,100780,0,1,175,8,431,1,1,s,4,1,orange,1042,1520,499,1,7,green,64c9892e8e7e06812b775c0c,0,s,0,5,f,742,1771158766003,1,431,1010,6.60934924316738,hi,low,True,True
387,431,431,64c9892e8e7e06812b775c0c,101640,1,0,-175,8,432,1,1,a,2,1,orange,1263,1116,499,7,5,green,64c9892e8e7e06812b775c0c,0,a,0,5,f,895,1771158766003,0,432,860,6.796823718274855,hi,med,True,True
388,432,432,64c9892e8e7e06812b775c0c,102430,1,0,-125,8,433,1,1,a,2,0,orange,1861,1128,499,5,1,green,64c9892e8e7e06812b775c0c,0,a,0,5,f,963,1771158766003,0,433,790,6.870053411798126,hi,med,True,True
389,433,433,64c9892e8e7e06812b775c0c,103380,1,0,-75,8,434,1,1,s,0,0,orange,1530,1561,499,5,1,green,64c9892e8e7e06812b775c0c,0,s,0,5,f,804,1771158766003,1,434,950,6.6895992691789665,hi,hi,True,True
390,434,434,64c9892e8e7e06812b775c0c,103488,1,0,-25,8,435,1,1,a,7,0,orange,1303,1193,499,7,5,green,64c9892e8e7e06812b775c0c,0,a,0,5,f,668,1771158766003,0,435,108,6.504288173536645,low,med,True,True
391,435,435,64c9892e8e7e06812b775c0c,103549,1,0,25,8,436,1,1,a,99,1,orange,1438,1126,499,9,1,green,64c9892e8e7e06812b775c0c,0,a,0,5,f,1138,1771158766003,0,436,61,7.037027614686276,nd,med,True,True
392,436,436,64c9892e8e7e06812b775c0c,103549,1,0,75,8,437,1,0,s,9,1,orange,1775,1327,499,5,1,green,64c9892e8e7e06812b775c0c,0,a,0,5,f,875,1771158766003,1,437,0,6.774223886357614,low,low,True,True
393,437,437,64c9892e8e7e06812b775c0c,103549,1,0,125,8,438,1,0,a,3,1,orange,1852,1465,499,1,3,green,64c9892e8e7e06812b775c0c,0,,0,5,f,1756,1771158766003,0,438,0,7.470793774195062,hi,low,False,False
394,438,438,64c9892e8e7e06812b775c0c,104339,1,0,175,8,439,1,1,a,1,1,orange,1170,1178,499,1,3,green,64c9892e8e7e06812b775c0c,0,a,0,5,f,960,1771158766003,0,439,790,6.866933284461882,hi,hi,True,True
395,439,439,64c9892e8e7e06812b775c0c,104899,0,1,-175,8,440,1,1,a,0,1,orange,1831,1854,499,3,5,green,64c9892e8e7e06812b775c0c,0,a,0,5,f,1195,1771158766003,0,440,560,7.085901464365611,hi,hi,True,True
396,440,440,64c9892e8e7e06812b775c0c,105002,0,1,-125,8,441,1,1,a,8,0,orange,1599,1149,499,1,7,green,64c9892e8e7e06812b775c0c,0,a,0,5,f,719,1771158766003,0,441,103,6.577861357721047,low,low,True,True
397,441,441,64c9892e8e7e06812b775c0c,105078,0,1,-75,8,442,1,1,a,99,0,orange,1915,1331,499,9,1,green,64c9892e8e7e06812b775c0c,0,a,0,5,f,988,1771158766003,0,442,76,6.895682697747868,nd,med,True,True
398,442,442,64c9892e8e7e06812b775c0c,105142,0,1,-25,8,443,1,1,s,9,0,orange,1189,1101,499,3,5,green,64c9892e8e7e06812b775c0c,0,s,0,5,f,1114,1771158766003,1,443,64,7.01571242048723,low,low,True,True
399,443,443,64c9892e8e7e06812b775c0c,106032,0,1,25,8,444,1,1,s,0,0,orange,1780,1947,499,7,3,green,64c9892e8e7e06812b775c0c,0,s,0,5,f,858,1771158766003,1,444,890,6.754604099487962,hi,hi,True,True
400,444,444,64c9892e8e7e06812b775c0c,106702,0,1,75,8,445,1,1,s,2,1,orange,1440,1114,499,5,3,green,64c9892e8e7e06812b775c0c,0,s,0,5,f,1078,1771158766003,1,445,670,6.982862751468942,hi,med,True,True
401,445,445,64c9892e8e7e06812b775c0c,106769,0,1,125,8,446,1,1,s,99,0,orange,1222,1636,499,9,3,green,64c9892e8e7e06812b775c0c,0,s,0,5,f,1076,1771158766003,1,446,67,6.98100574072173,nd,med,True,True
402,446,446,64c9892e8e7e06812b775c0c,106830,0,1,175,8,447,1,1,s,5,0,orange,1013,1300,499,3,1,green,64c9892e8e7e06812b775c0c,0,s,0,5,f,1145,1771158766003,1,447,61,7.0431599159883405,low,hi,True,True
403,447,447,64c9892e8e7e06812b775c0c,107300,1,0,-175,8,448,1,1,s,2,1,orange,1262,1873,499,1,3,green,64c9892e8e7e06812b775c0c,0,s,0,5,f,1283,1771158766003,1,448,470,7.1569563646156364,hi,med,True,True
404,448,448,64c9892e8e7e06812b775c0c,108220,1,0,-125,8,449,1,1,a,3,1,orange,1998,1917,499,7,1,green,64c9892e8e7e06812b775c0c,0,a,0,5,f,827,1771158766003,0,449,920,6.717804695023691,hi,low,True,True
405,449,449,64c9892e8e7e06812b775c0c,109200,1,0,-75,9,450,1,1,a,4,0,orange,1366,1731,499,5,3,green,64c9892e8e7e06812b775c0c,0,c,0,5,f,17591,1771158766003,0,450,980,9.775142686598905,hi,low,False,False
406,450,450,64c9892e8e7e06812b775c0c,109810,1,0,-25,9,451,1,1,a,0,0,orange,1630,1516,499,3,1,green,64c9892e8e7e06812b775c0c,0,a,0,5,f,1136,1771158766003,0,451,610,7.035268599281097,hi,hi,True,True
407,451,451,64c9892e8e7e06812b775c0c,109890,1,0,25,9,452,1,1,a,8,0,orange,1502,1907,499,1,5,green,64c9892e8e7e06812b775c0c,0,a,0,5,f,955,1771158766003,0,452,80,6.86171134048073,low,low,True,True
408,452,452,64c9892e8e7e06812b775c0c,109993,1,0,75,9,453,1,1,a,8,1,orange,1854,1989,499,7,1,green,64c9892e8e7e06812b775c0c,0,a,0,5,f,719,1771158766003,0,453,103,6.577861357721047,low,low,True,True
409,453,453,64c9892e8e7e06812b775c0c,110913,1,0,125,9,454,1,1,s,1,0,orange,1167,1430,499,7,3,green,64c9892e8e7e06812b775c0c,0,s,0,5,f,835,1771158766003,1,454,920,6.727431724850855,hi,hi,True,True
410,454,454,64c9892e8e7e06812b775c0c,111006,1,0,175,9,455,1,1,a,7,1,orange,1742,1199,499,1,7,green,64c9892e8e7e06812b775c0c,0,a,0,5,f,821,1771158766003,0,455,93,6.710523109452428,low,med,True,True
411,455,455,64c9892e8e7e06812b775c0c,111116,0,1,-175,9,456,1,1,a,7,0,orange,1775,1033,499,5,1,green,64c9892e8e7e06812b775c0c,0,a,0,5,f,646,1771158766003,0,456,110,6.470799503782602,low,med,True,True
412,456,456,64c9892e8e7e06812b775c0c,111227,0,1,-125,9,457,1,1,a,9,0,orange,1962,1567,499,1,5,green,64c9892e8e7e06812b775c0c,0,a,0,5,f,642,1771158766003,0,457,111,6.464588303689961,low,low,True,True
413,457,457,64c9892e8e7e06812b775c0c,112047,0,1,-75,9,458,1,1,s,0,1,orange,1239,1003,499,1,3,green,64c9892e8e7e06812b775c0c,0,s,0,5,f,929,1771158766003,1,458,820,6.834108738813838,hi,hi,True,True
414,458,458,64c9892e8e7e06812b775c0c,113137,0,1,-25,9,459,1,1,a,2,0,orange,1343,1745,499,3,7,green,64c9892e8e7e06812b775c0c,0,a,0,5,f,661,1771158766003,0,459,1090,6.493753839851686,hi,med,True,True
415,459,459,64c9892e8e7e06812b775c0c,113253,0,1,25,9,460,1,1,a,8,0,orange,1989,1186,499,3,7,green,64c9892e8e7e06812b775c0c,0,a,0,5,f,586,1771158766003,0,460,116,6.373319789577012,low,low,True,True
416,460,460,64c9892e8e7e06812b775c0c,113281,0,1,75,9,461,1,1,s,6,0,orange,1689,1382,499,1,5,green,64c9892e8e7e06812b775c0c,0,s,0,5,f,1470,1771158766003,1,461,28,7.293017679772782,low,hi,True,True
417,461,461,64c9892e8e7e06812b775c0c,113381,0,1,125,9,462,1,1,a,8,1,orange,1712,1894,499,5,3,green,64c9892e8e7e06812b775c0c,0,a,0,5,f,748,1771158766003,0,462,100,6.617402977974478,low,low,True,True
418,462,462,64c9892e8e7e06812b775c0c,113493,0,1,175,9,463,1,1,a,9,1,orange,1678,1732,499,5,7,green,64c9892e8e7e06812b775c0c,0,a,0,5,f,627,1771158766003,0,463,112,6.440946540632921,low,low,True,True
419,463,463,64c9892e8e7e06812b775c0c,113493,1,0,-175,9,464,1,0,s,1,0,orange,1325,1006,499,7,1,green,64c9892e8e7e06812b775c0c,0,a,0,5,f,1066,1771158766003,1,464,0,6.97166860472579,hi,hi,True,True
420,464,464,64c9892e8e7e06812b775c0c,113493,1,0,-125,9,465,1,0,a,6,0,orange,1682,1036,499,3,5,green,64c9892e8e7e06812b775c0c,0,,0,5,f,1755,1771158766003,0,465,0,7.470224135899966,low,hi,False,False
421,465,465,64c9892e8e7e06812b775c0c,113493,1,0,-75,9,466,1,0,a,99,1,orange,1616,1478,499,9,3,green,64c9892e8e7e06812b775c0c,0,s,0,5,f,982,1771158766003,0,466,0,6.889591308354466,nd,med,True,True
422,466,466,64c9892e8e7e06812b775c0c,114463,1,0,-25,9,467,1,1,a,1,0,orange,1678,1835,499,3,7,green,64c9892e8e7e06812b775c0c,0,a,0,5,f,784,1771158766003,0,467,970,6.664409020350408,hi,hi,True,True
423,467,467,64c9892e8e7e06812b775c0c,114551,1,0,25,9,468,1,1,a,5,1,orange,1256,1127,499,7,5,green,64c9892e8e7e06812b775c0c,0,a,0,5,f,867,1771158766003,0,468,88,6.7650389767805414,low,hi,True,True
424,468,468,64c9892e8e7e06812b775c0c,115351,1,0,75,9,469,1,1,s,2,1,orange,1638,1834,499,1,7,green,64c9892e8e7e06812b775c0c,0,s,0,5,f,954,1771158766003,1,469,800,6.860663671448287,hi,med,True,True
425,469,469,64c9892e8e7e06812b775c0c,115439,1,0,125,9,470,1,1,s,7,1,orange,1574,1631,499,3,7,green,64c9892e8e7e06812b775c0c,0,s,0,5,f,875,1771158766003,1,470,88,6.774223886357614,low,med,True,True
426,470,470,64c9892e8e7e06812b775c0c,115534,1,0,175,9,471,1,1,a,9,1,orange,1641,1098,499,7,3,green,64c9892e8e7e06812b775c0c,0,a,0,5,f,797,1771158766003,0,471,95,6.680854678790215,low,low,True,True
427,471,471,64c9892e8e7e06812b775c0c,115574,0,1,-175,9,472,1,1,s,5,1,orange,1672,1391,499,7,1,green,64c9892e8e7e06812b775c0c,0,s,0,5,f,1354,1771158766003,1,472,40,7.21081845347222,low,hi,True,True
428,472,472,64c9892e8e7e06812b775c0c,115647,0,1,-125,9,473,1,1,s,99,0,orange,1225,1363,499,9,5,green,64c9892e8e7e06812b775c0c,0,s,0,5,f,1025,1771158766003,1,473,73,6.932447891572509,nd,med,True,True
429,473,473,64c9892e8e7e06812b775c0c,116297,0,1,-75,9,474,1,1,s,1,0,orange,1792,1483,499,5,7,green,64c9892e8e7e06812b775c0c,0,s,0,5,f,1102,1771158766003,1,474,650,7.004881989712859,hi,hi,True,True
430,474,474,64c9892e8e7e06812b775c0c,116937,0,1,-25,9,475,1,1,a,3,0,orange,1234,1862,499,5,1,green,64c9892e8e7e06812b775c0c,0,a,0,5,f,1107,1771158766003,0,475,640,7.009408932708637,hi,low,True,True
431,475,475,64c9892e8e7e06812b775c0c,117013,0,1,25,9,476,1,1,s,8,1,orange,1221,1450,499,3,5,green,64c9892e8e7e06812b775c0c,0,s,0,5,f,992,1771158766003,1,476,76,6.899723107284872,low,low,True,True
432,476,476,64c9892e8e7e06812b775c0c,117013,0,1,75,9,477,1,0,a,0,1,orange,1244,1294,499,5,3,green,64c9892e8e7e06812b775c0c,0,s,0,5,f,1729,1771158766003,0,477,0,7.455298485683291,hi,hi,True,False
433,477,477,64c9892e8e7e06812b775c0c,117058,0,1,125,9,478,1,1,s,99,1,orange,1711,1083,499,9,1,green,64c9892e8e7e06812b775c0c,0,s,0,5,f,1296,1771158766003,1,478,45,7.16703787691222,nd,med,True,True
434,478,478,64c9892e8e7e06812b775c0c,117128,0,1,175,9,479,1,1,a,5,1,orange,1939,1764,499,5,7,green,64c9892e8e7e06812b775c0c,0,a,0,5,f,1055,1771158766003,0,479,70,6.961296045910167,low,hi,True,True
435,501,501,5d9e3ec9611b0b0017b14b9a,610,1,0,175,0,23,0,1,s,3,0,green,1823,1238,490,5,1,orange,5d9e3ec9611b0b0017b14b9a,0,s,9,3,m,1143,1771158376526,1,23,610,7.04141166379481,hi,low,True,True
436,502,502,5d9e3ec9611b0b0017b14b9a,684,0,1,-175,0,24,0,1,a,6,0,green,1415,1025,490,5,7,orange,5d9e3ec9611b0b0017b14b9a,0,a,9,3,m,1006,1771158376526,0,24,74,6.913737350659685,low,hi,True,True
437,503,503,5d9e3ec9611b0b0017b14b9a,684,0,1,-125,0,25,0,0,a,1,1,green,1193,1453,490,7,3,orange,5d9e3ec9611b0b0017b14b9a,0,,9,3,m,1760,1771158376526,0,25,0,7.473069088032197,hi,hi,False,False
438,504,504,5d9e3ec9611b0b0017b14b9a,1084,0,1,-75,0,26,0,1,s,0,1,green,1792,1444,490,3,1,orange,5d9e3ec9611b0b0017b14b9a,0,s,9,3,m,1354,1771158376526,1,26,400,7.21081845347222,hi,hi,True,True
439,505,505,5d9e3ec9611b0b0017b14b9a,1594,0,1,-25,0,27,0,1,a,1,0,green,1320,1610,490,3,5,orange,5d9e3ec9611b0b0017b14b9a,0,a,9,3,m,1245,1771158376526,0,27,510,7.126890808898808,hi,hi,True,True
440,506,506,5d9e3ec9611b0b0017b14b9a,1622,0,1,25,0,28,0,1,s,8,1,green,1575,1070,490,7,1,orange,5d9e3ec9611b0b0017b14b9a,0,s,9,3,m,1475,1771158376526,1,28,28,7.29641326877392,low,low,True,True
441,507,507,5d9e3ec9611b0b0017b14b9a,1670,0,1,75,0,29,0,1,s,8,1,green,1230,1051,490,7,3,orange,5d9e3ec9611b0b0017b14b9a,0,s,9,3,m,1275,1771158376526,1,29,48,7.150701457592526,low,low,True,True
442,508,508,5d9e3ec9611b0b0017b14b9a,1749,0,1,125,0,30,0,1,a,8,1,green,1355,1092,490,5,3,orange,5d9e3ec9611b0b0017b14b9a,0,a,9,3,m,963,1771158376526,0,30,79,6.870053411798126,low,low,True,True
443,509,509,5d9e3ec9611b0b0017b14b9a,1749,0,1,175,0,31,0,0,s,1,0,green,1193,1177,490,3,1,orange,5d9e3ec9611b0b0017b14b9a,0,a,9,3,m,842,1771158376526,1,31,0,6.7357800142423265,hi,hi,True,True
444,510,510,5d9e3ec9611b0b0017b14b9a,1780,1,0,-175,0,32,0,1,s,8,1,green,1360,1055,490,1,5,orange,5d9e3ec9611b0b0017b14b9a,0,s,9,3,m,1440,1771158376526,1,32,31,7.272398392570047,low,low,True,True
445,511,511,5d9e3ec9611b0b0017b14b9a,1876,1,0,-125,0,33,0,1,a,9,1,green,1824,1047,490,3,1,orange,5d9e3ec9611b0b0017b14b9a,0,a,9,3,m,792,1771158376526,0,33,96,6.674561391814426,low,low,True,True
446,512,512,5d9e3ec9611b0b0017b14b9a,2756,1,0,-75,0,34,0,1,a,2,0,green,1081,1572,490,7,3,orange,5d9e3ec9611b0b0017b14b9a,0,a,9,3,m,868,1771158376526,0,34,880,6.7661917146603505,hi,med,True,True
447,513,513,5d9e3ec9611b0b0017b14b9a,2788,1,0,-25,0,35,0,1,s,5,1,green,1254,1437,490,7,5,orange,5d9e3ec9611b0b0017b14b9a,0,s,9,3,m,1435,1771158376526,1,35,32,7.268920128193722,low,hi,True,True
448,514,514,5d9e3ec9611b0b0017b14b9a,2849,1,0,25,0,36,0,1,s,9,0,green,1497,1746,490,7,5,orange,5d9e3ec9611b0b0017b14b9a,0,s,9,3,m,1145,1771158376526,1,36,61,7.0431599159883405,low,low,True,True
449,515,515,5d9e3ec9611b0b0017b14b9a,2916,1,0,75,0,37,0,1,s,7,0,green,1921,1417,490,7,3,orange,5d9e3ec9611b0b0017b14b9a,0,s,9,3,m,1079,1771158376526,1,37,67,6.983789965258135,low,med,True,True
450,516,516,5d9e3ec9611b0b0017b14b9a,3646,1,0,125,0,38,0,1,a,0,1,green,1011,1033,490,5,7,orange,5d9e3ec9611b0b0017b14b9a,0,a,9,3,m,1016,1771158376526,0,38,730,6.923628628138427,hi,hi,True,True
451,517,517,5d9e3ec9611b0b0017b14b9a,3730,1,0,175,0,39,0,1,s,7,1,green,1234,1216,490,3,1,orange,5d9e3ec9611b0b0017b14b9a,0,s,9,3,m,908,1771158376526,1,39,84,6.811244378601294,low,med,True,True
452,518,518,5d9e3ec9611b0b0017b14b9a,4620,0,1,-175,0,40,0,1,a,1,1,green,1802,1001,490,1,3,orange,5d9e3ec9611b0b0017b14b9a,0,a,9,3,m,858,1771158376526,0,40,890,6.754604099487962,hi,hi,True,True
453,519,519,5d9e3ec9611b0b0017b14b9a,5410,0,1,-125,0,41,0,1,a,2,0,green,1883,1378,490,5,3,orange,5d9e3ec9611b0b0017b14b9a,0,a,9,3,m,959,1771158376526,0,41,790,6.8658910748834385,hi,med,True,True
454,520,520,5d9e3ec9611b0b0017b14b9a,6300,0,1,-75,0,42,0,1,s,0,1,green,1922,1622,490,7,3,orange,5d9e3ec9611b0b0017b14b9a,0,s,9,3,m,861,1771158376526,1,42,890,6.7580945044277305,hi,hi,True,True
455,521,521,5d9e3ec9611b0b0017b14b9a,6401,0,1,-25,0,43,0,1,a,6,0,green,1638,1904,490,5,1,orange,5d9e3ec9611b0b0017b14b9a,0,a,9,3,m,744,1771158376526,0,43,101,6.612041034833092,low,hi,True,True
456,522,522,5d9e3ec9611b0b0017b14b9a,6401,0,1,25,0,44,0,0,a,99,0,green,1154,1685,490,9,5,orange,5d9e3ec9611b0b0017b14b9a,0,s,9,3,m,973,1771158376526,0,44,0,6.880384082186005,nd,med,True,True
457,523,523,5d9e3ec9611b0b0017b14b9a,7181,0,1,75,0,45,0,1,s,2,0,green,1559,1940,490,5,1,orange,5d9e3ec9611b0b0017b14b9a,0,s,9,3,m,967,1771158376526,1,45,780,6.874198495453294,hi,med,True,True
458,524,524,5d9e3ec9611b0b0017b14b9a,7181,0,1,125,0,46,0,0,s,99,1,green,1223,1972,490,9,1,orange,5d9e3ec9611b0b0017b14b9a,0,a,9,3,m,1032,1771158376526,1,46,0,6.939253946041508,nd,med,True,True
459,525,525,5d9e3ec9611b0b0017b14b9a,7256,0,1,175,0,47,0,1,s,6,0,green,1675,1421,490,7,3,orange,5d9e3ec9611b0b0017b14b9a,0,s,9,3,m,1001,1771158376526,1,47,75,6.90875477931522,low,hi,True,True
460,526,526,5d9e3ec9611b0b0017b14b9a,7350,1,0,-175,0,48,0,1,a,99,0,green,1085,1384,490,9,7,orange,5d9e3ec9611b0b0017b14b9a,0,a,9,3,m,813,1771158376526,0,48,94,6.70073110954781,nd,med,True,True
461,527,527,5d9e3ec9611b0b0017b14b9a,8310,1,0,-125,0,49,0,1,a,0,0,green,1448,1427,490,5,1,orange,5d9e3ec9611b0b0017b14b9a,0,a,9,3,m,795,1771158376526,0,49,960,6.678342114654332,hi,hi,True,True
462,528,528,5d9e3ec9611b0b0017b14b9a,9210,1,0,-75,1,50,0,1,s,0,0,green,1607,1442,490,5,3,orange,5d9e3ec9611b0b0017b14b9a,0,space,9,3,m,2726,1771158376526,1,50,900,7.910590612256477,hi,hi,False,False
463,529,529,5d9e3ec9611b0b0017b14b9a,10000,1,0,-25,1,51,0,1,a,2,1,green,1684,1091,490,5,7,orange,5d9e3ec9611b0b0017b14b9a,0,a,9,3,m,965,1771158376526,0,51,790,6.872128101338986,hi,med,True,True
464,530,530,5d9e3ec9611b0b0017b14b9a,10160,1,0,25,1,52,0,1,a,1,0,green,1795,1949,490,5,7,orange,5d9e3ec9611b0b0017b14b9a,0,a,9,3,m,1587,1771158376526,0,52,160,7.369600720526409,hi,hi,True,False
465,531,531,5d9e3ec9611b0b0017b14b9a,10890,1,0,75,1,53,0,1,a,3,1,green,1090,1109,490,1,3,orange,5d9e3ec9611b0b0017b14b9a,0,a,9,3,m,1018,1771158376526,0,53,730,6.925595197110468,hi,low,True,True
466,532,532,5d9e3ec9611b0b0017b14b9a,11750,1,0,125,1,54,0,1,a,1,1,green,1210,1139,490,5,3,orange,5d9e3ec9611b0b0017b14b9a,0,a,9,3,m,887,1771158376526,0,54,860,6.787844982309579,hi,hi,True,True
467,533,533,5d9e3ec9611b0b0017b14b9a,11826,1,0,175,1,55,0,1,s,6,0,green,1148,1979,490,5,3,orange,5d9e3ec9611b0b0017b14b9a,0,s,9,3,m,987,1771158376526,1,55,76,6.894670039433482,low,hi,True,True
468,534,534,5d9e3ec9611b0b0017b14b9a,12806,0,1,-175,1,56,0,1,a,2,1,green,1023,1940,490,1,3,orange,5d9e3ec9611b0b0017b14b9a,0,a,9,3,m,768,1771158376526,0,56,980,6.643789733147672,hi,med,True,True
469,535,535,5d9e3ec9611b0b0017b14b9a,12811,0,1,-125,1,57,0,1,a,6,0,green,1081,1055,490,3,1,orange,5d9e3ec9611b0b0017b14b9a,0,a,9,3,m,1705,1771158376526,0,57,5,7.4413203897176174,low,hi,True,False
470,536,536,5d9e3ec9611b0b0017b14b9a,13511,0,1,-75,1,58,0,1,a,4,0,green,1778,1082,490,1,7,orange,5d9e3ec9611b0b0017b14b9a,0,a,9,3,m,1051,1771158376526,0,58,700,6.957497370876951,hi,low,True,True
471,537,537,5d9e3ec9611b0b0017b14b9a,13511,0,1,-25,1,59,0,0,a,6,1,green,1811,1402,490,3,7,orange,5d9e3ec9611b0b0017b14b9a,0,s,9,3,m,981,1771158376526,0,59,0,6.8885724595653635,low,hi,True,True
472,538,538,5d9e3ec9611b0b0017b14b9a,13580,0,1,25,1,60,0,1,s,99,1,green,1366,1223,490,9,3,orange,5d9e3ec9611b0b0017b14b9a,0,s,9,3,m,1058,1771158376526,1,60,69,6.964135612418245,nd,med,True,True
473,539,539,5d9e3ec9611b0b0017b14b9a,14610,0,1,75,1,61,0,1,a,1,1,green,1888,1379,490,7,1,orange,5d9e3ec9611b0b0017b14b9a,0,a,9,3,m,717,1771158376526,0,61,1030,6.57507584059962,hi,hi,True,True
474,540,540,5d9e3ec9611b0b0017b14b9a,14610,0,1,125,1,62,0,0,a,4,0,green,1463,1160,490,1,5,orange,5d9e3ec9611b0b0017b14b9a,0,s,9,3,m,1050,1771158376526,0,62,0,6.956545443151569,hi,low,True,True
475,541,541,5d9e3ec9611b0b0017b14b9a,14621,0,1,175,1,63,0,1,s,6,0,green,1375,1897,490,7,5,orange,5d9e3ec9611b0b0017b14b9a,0,s,9,3,m,1642,1771158376526,1,63,11,7.403670290012373,low,hi,True,False
476,542,542,5d9e3ec9611b0b0017b14b9a,14682,1,0,-175,1,64,0,1,s,9,0,green,1214,1049,490,7,1,orange,5d9e3ec9611b0b0017b14b9a,0,s,9,3,m,1142,1771158376526,1,64,61,7.040536390215956,low,low,True,True
477,543,543,5d9e3ec9611b0b0017b14b9a,15532,1,0,-125,1,65,0,1,a,4,1,green,1791,1322,490,7,3,orange,5d9e3ec9611b0b0017b14b9a,0,a,9,3,m,899,1771158376526,0,65,850,6.80128303447162,hi,low,True,True
478,544,544,5d9e3ec9611b0b0017b14b9a,16552,1,0,-75,1,66,0,1,a,3,1,green,1701,1943,490,5,7,orange,5d9e3ec9611b0b0017b14b9a,0,a,9,3,m,730,1771158376526,0,66,1020,6.593044534142437,hi,low,True,True
479,545,545,5d9e3ec9611b0b0017b14b9a,17522,1,0,-25,1,67,0,1,a,0,0,green,1412,1858,490,7,1,orange,5d9e3ec9611b0b0017b14b9a,0,a,9,3,m,785,1771158376526,0,67,970,6.665683717782408,hi,hi,True,True
480,546,546,5d9e3ec9611b0b0017b14b9a,18362,1,0,25,1,68,0,1,a,2,0,green,1543,1373,490,1,5,orange,5d9e3ec9611b0b0017b14b9a,0,a,9,3,m,915,1771158376526,0,68,840,6.818924065275521,hi,med,True,True
481,547,547,5d9e3ec9611b0b0017b14b9a,18459,1,0,75,1,69,0,1,s,9,0,green,1343,1650,490,7,3,orange,5d9e3ec9611b0b0017b14b9a,0,s,9,3,m,782,1771158376526,1,69,97,6.661854740545311,low,low,True,True
482,548,548,5d9e3ec9611b0b0017b14b9a,19309,1,0,125,1,70,0,1,s,1,0,green,1474,1511,490,3,7,orange,5d9e3ec9611b0b0017b14b9a,0,s,9,3,m,901,1771158376526,1,70,850,6.803505257608338,hi,hi,True,True
483,549,549,5d9e3ec9611b0b0017b14b9a,19377,1,0,175,1,71,0,1,a,9,0,green,1551,1010,490,1,5,orange,5d9e3ec9611b0b0017b14b9a,0,a,9,3,m,1073,1771158376526,0,71,68,6.9782137426306985,low,low,True,True
484,550,550,5d9e3ec9611b0b0017b14b9a,20217,0,1,-175,1,72,0,1,s,3,0,green,1185,1623,490,5,3,orange,5d9e3ec9611b0b0017b14b9a,0,s,9,3,m,908,1771158376526,1,72,840,6.811244378601294,hi,low,True,True
485,551,551,5d9e3ec9611b0b0017b14b9a,20907,0,1,-125,1,73,0,1,s,4,1,green,1833,1401,490,3,5,orange,5d9e3ec9611b0b0017b14b9a,0,s,9,3,m,1056,1771158376526,1,73,690,6.962243464266207,hi,low,True,True
486,552,552,5d9e3ec9611b0b0017b14b9a,20907,0,1,-75,1,74,0,0,s,7,0,green,1680,1965,490,1,3,orange,5d9e3ec9611b0b0017b14b9a,0,a,9,3,m,723,1771158376526,1,74,0,6.583409222158765,low,med,True,True
487,553,553,5d9e3ec9611b0b0017b14b9a,21077,0,1,-25,1,75,0,1,s,2,1,green,1399,1126,490,7,1,orange,5d9e3ec9611b0b0017b14b9a,0,s,9,3,m,1578,1771158376526,1,75,170,7.363913501405819,hi,med,True,False
488,554,554,5d9e3ec9611b0b0017b14b9a,21897,0,1,25,1,76,0,1,a,0,0,green,1746,1052,490,7,5,orange,5d9e3ec9611b0b0017b14b9a,0,a,9,3,m,931,1771158376526,0,76,820,6.836259277277067,hi,hi,True,True
489,555,555,5d9e3ec9611b0b0017b14b9a,22497,0,1,75,1,77,0,1,a,4,0,green,1159,1310,490,5,1,orange,5d9e3ec9611b0b0017b14b9a,0,a,9,3,m,1148,1771158376526,0,77,600,7.045776576879511,hi,low,True,True
490,556,556,5d9e3ec9611b0b0017b14b9a,22549,0,1,125,1,78,0,1,s,7,0,green,1270,1526,490,7,5,orange,5d9e3ec9611b0b0017b14b9a,0,s,9,3,m,1232,1771158376526,1,78,52,7.116394144093465,low,med,True,True
491,557,557,5d9e3ec9611b0b0017b14b9a,22549,0,1,175,1,79,0,0,s,7,1,green,1503,1215,490,3,7,orange,5d9e3ec9611b0b0017b14b9a,0,a,9,3,m,780,1771158376526,1,79,0,6.659293919683638,low,med,True,True
492,558,558,5d9e3ec9611b0b0017b14b9a,22600,1,0,-175,1,80,0,1,s,8,0,green,1438,1037,490,3,5,orange,5d9e3ec9611b0b0017b14b9a,0,s,9,3,m,1242,1771158376526,1,80,51,7.124478262493424,low,low,True,True
493,559,559,5d9e3ec9611b0b0017b14b9a,22640,1,0,-125,1,81,0,1,a,8,1,green,1238,1227,490,3,1,orange,5d9e3ec9611b0b0017b14b9a,0,a,9,3,m,1346,1771158376526,0,81,40,7.204892510204673,low,low,True,True
494,560,560,5d9e3ec9611b0b0017b14b9a,22727,1,0,-75,1,82,0,1,a,6,1,green,1488,1085,490,1,7,orange,5d9e3ec9611b0b0017b14b9a,0,a,9,3,m,877,1771158376526,0,82,87,6.776506992372183,low,hi,True,True
495,561,561,5d9e3ec9611b0b0017b14b9a,23087,1,0,-25,1,83,0,1,s,3,0,green,1606,1087,490,7,1,orange,5d9e3ec9611b0b0017b14b9a,0,s,9,3,m,1387,1771158376526,1,83,360,7.234898420314831,hi,low,True,True
496,562,562,5d9e3ec9611b0b0017b14b9a,23174,1,0,25,1,84,0,1,a,9,0,green,1365,1721,490,5,7,orange,5d9e3ec9611b0b0017b14b9a,0,a,9,3,m,881,1771158376526,0,84,87,6.78105762593618,low,low,True,True
497,563,563,5d9e3ec9611b0b0017b14b9a,23174,1,0,75,1,85,0,0,s,9,0,green,1475,1281,490,3,5,orange,5d9e3ec9611b0b0017b14b9a,0,a,9,3,m,1031,1771158376526,1,85,0,6.93828448401696,low,low,True,True
498,564,564,5d9e3ec9611b0b0017b14b9a,23236,1,0,125,1,86,0,1,s,99,0,green,1451,1364,490,9,5,orange,5d9e3ec9611b0b0017b14b9a,0,s,9,3,m,1131,1771158376526,1,86,62,7.030857476116121,nd,med,True,True
499,565,565,5d9e3ec9611b0b0017b14b9a,23309,1,0,175,1,87,0,1,a,99,0,green,1465,1458,490,9,1,orange,5d9e3ec9611b0b0017b14b9a,0,a,9,3,m,1022,1771158376526,0,87,73,6.92951677076365,nd,med,True,True
500,566,566,5d9e3ec9611b0b0017b14b9a,23309,0,1,-175,1,88,0,0,a,3,1,green,1058,1803,490,3,7,orange,5d9e3ec9611b0b0017b14b9a,0,s,9,3,m,1064,1771158376526,0,88,0,6.96979066990159,hi,low,True,True
501,567,567,5d9e3ec9611b0b0017b14b9a,23393,0,1,-125,1,89,0,1,s,99,0,green,1953,1846,490,9,7,orange,5d9e3ec9611b0b0017b14b9a,0,s,9,3,m,907,1771158376526,1,89,84,6.810142450115136,nd,med,True,True
502,568,568,5d9e3ec9611b0b0017b14b9a,24323,0,1,-75,1,90,0,1,a,3,1,green,1787,1666,490,7,5,orange,5d9e3ec9611b0b0017b14b9a,0,a,9,3,m,819,1771158376526,0,90,930,6.70808408385307,hi,low,True,True
503,569,569,5d9e3ec9611b0b0017b14b9a,24392,0,1,-25,1,91,0,1,s,8,1,green,1641,1215,490,1,3,orange,5d9e3ec9611b0b0017b14b9a,0,s,9,3,m,1060,1771158376526,1,91,69,6.966024187106113,low,low,True,True
504,570,570,5d9e3ec9611b0b0017b14b9a,25052,0,1,25,1,92,0,1,s,1,1,green,1655,1590,490,1,5,orange,5d9e3ec9611b0b0017b14b9a,0,s,9,3,m,1087,1771158376526,1,92,660,6.99117688712121,hi,hi,True,True
505,571,571,5d9e3ec9611b0b0017b14b9a,25052,0,1,75,1,93,0,0,s,99,0,green,1434,1941,490,9,7,orange,5d9e3ec9611b0b0017b14b9a,0,a,9,3,m,896,1771158376526,1,93,0,6.79794041297493,nd,med,True,True
506,572,572,5d9e3ec9611b0b0017b14b9a,25812,0,1,125,1,94,0,1,s,2,0,green,1310,1399,490,3,7,orange,5d9e3ec9611b0b0017b14b9a,0,s,9,3,m,995,1771158376526,1,94,760,6.902742737158593,hi,med,True,True
507,573,573,5d9e3ec9611b0b0017b14b9a,26562,0,1,175,1,95,0,1,s,2,1,green,1490,1865,490,7,5,orange,5d9e3ec9611b0b0017b14b9a,0,s,9,3,m,1003,1771158376526,1,95,750,6.910750787961936,hi,med,True,True
508,574,574,5d9e3ec9611b0b0017b14b9a,26562,1,0,-175,1,96,0,0,a,99,0,green,1417,1673,490,9,7,orange,5d9e3ec9611b0b0017b14b9a,0,s,9,3,m,1164,1771158376526,0,96,0,7.059617628291383,nd,med,True,True
509,575,575,5d9e3ec9611b0b0017b14b9a,26650,1,0,-125,1,97,0,1,s,99,1,green,1020,1382,490,9,3,orange,5d9e3ec9611b0b0017b14b9a,0,s,9,3,m,870,1771158376526,1,97,88,6.76849321164863,nd,med,True,True
